Timestamp,accelZ(g),accelUserZ(g),gyroX(rad/s),gyroY(rad/s),gyroZ(rad/s),Roll(rads),Pitch(rads),Yaw(rads),,Acceleration,a * t,1/2 * a * t^2,  ,Deceleration,a * t,distance traveled while decelerating
01:24.3,-0.9861,0.015,-0.0051,-0.0244,-0.0107,0.0202,0.0016,0.2042,,0.492746798,0.655845988,0.436465505,,-0.262221019,-0.572952927,0.80707241
01:24.3,-0.9861,0.015,-0.0051,-0.0244,-0.0107,0.0202,0.0016,0.2042,,,,,,,,
01:24.3,-0.9861,0.015,-0.0051,-0.0244,-0.0107,0.0202,0.0016,0.2042,,,,,,,,
01:24.3,-0.9861,0.015,-0.0051,-0.0244,-0.0107,0.0202,0.0016,0.2042,,,middle  t,middle t * a,,correction for baseline,,
01:24.3,-0.9861,0.015,-0.0051,-0.0244,-0.0107,0.0202,0.0016,0.2042,,,16.369,10.73554297,,0.130049105,,
01:24.3,-0.9861,0.0137,-0.0073,-0.0181,-0.0107,0.0202,0.0016,0.2042,,,,,,,,
01:24.3,-0.9861,0.0137,-0.0073,-0.0181,-0.0107,0.0202,0.0016,0.2042,,,,,,,,
01:24.3,-0.9861,0.0137,-0.0073,-0.0181,-0.0107,0.0202,0.0016,0.2042,,,,,,,,
01:24.3,-0.9886,0.0137,-0.0073,-0.0181,-0.0107,0.0202,0.0016,0.2042,,,,,,,,
01:24.3,-0.9875,0.0111,-0.0084,-0.0127,-0.0128,0.0201,0.0016,0.2042,,,,,,,,
01:24.4,-0.9859,0.0122,-0.0094,-0.0106,-0.0128,0.0201,0.0016,0.2042,,,,,,,,
01:24.4,-0.9863,0.0138,-0.0094,-0.0149,-0.0118,0.0201,0.0016,0.2042,,,,,,,,
01:24.4,-0.9877,0.0135,-0.0105,-0.0149,-0.0118,0.0201,0.0016,0.2042,,,,,,,,
01:24.4,-0.9884,0.0121,-0.0105,-0.0138,-0.0129,0.0201,0.0016,0.2042,,,,,,,,
01:24.4,-0.9867,0.0114,-0.0083,-0.017,-0.0118,0.02,0.0016,0.2042,,,,,,,,
01:24.4,-0.9889,0.0131,-0.0073,-0.0149,-0.0128,0.02,0.0016,0.2041,,,,,,,,
01:24.4,-0.9876,0.0109,-0.0094,-0.0138,-0.0107,0.02,0.0016,0.2042,,,,,,,,
01:24.4,-0.9841,0.0122,-0.0084,-0.0128,-0.0118,0.02,0.0016,0.2042,,,,,,,,
01:24.4,-0.9876,0.0157,-0.0094,-0.0128,-0.0118,0.02,0.0016,0.2042,,,,,,,,
01:24.4,-0.9886,0.0122,-0.0083,-0.0159,-0.0118,0.02,0.0016,0.2042,,,,,,,,
01:24.5,-0.9865,0.0112,-0.0094,-0.0138,-0.0129,0.02,0.0016,0.2042,,,,,,,,
01:24.5,-0.9857,0.0133,-0.0084,-0.0149,-0.0118,0.02,0.0017,0.2042,,,,,,,,
01:24.5,-0.9855,0.0141,-0.0094,-0.0159,-0.0129,0.02,0.0017,0.2041,,,,,,,,
01:24.5,-0.9878,0.0143,-0.0094,-0.016,-0.0118,0.02,0.0017,0.2041,,,,,,,,
01:24.5,-0.9869,0.012,-0.0083,-0.016,-0.0107,0.0199,0.0017,0.2042,,,,,,,,
01:24.5,-0.9869,0.0129,-0.0094,-0.0149,-0.0107,0.0199,0.0017,0.2042,,,,,,,,
01:24.5,-0.9877,0.0129,-0.0073,-0.0159,-0.0107,0.0199,0.0017,0.2042,,,,,,,,
01:24.5,-0.9863,0.0121,-0.0083,-0.0159,-0.0118,0.0199,0.0017,0.2042,,,,,,,,
01:24.5,-0.9855,0.0135,-0.0083,-0.017,-0.0129,0.0198,0.0017,0.2042,,,,,,,,
01:24.5,-0.9891,0.0143,-0.0084,-0.0149,-0.0118,0.0198,0.0017,0.2042,,,,,,,,
01:24.6,-0.9864,0.0107,-0.0084,-0.0149,-0.0118,0.0198,0.0017,0.2042,,,,,,,,
01:24.6,-0.9858,0.0134,-0.0094,-0.0138,-0.0129,0.0198,0.0017,0.2042,,,,,,,,
01:24.6,-0.9882,0.014,-0.0084,-0.0149,-0.0118,0.0198,0.0017,0.2042,,,,,,,,
01:24.6,-0.9869,0.0116,-0.0105,-0.0149,-0.0097,0.0198,0.0017,0.2042,,,,,,,,
01:24.6,-0.9874,0.0129,-0.0094,-0.0149,-0.0118,0.0197,0.0017,0.2042,,,,,,,,
01:24.6,-0.9864,0.0124,-0.0084,-0.0117,-0.0118,0.0197,0.0018,0.2042,,,,,,,,
01:24.6,-0.9856,0.0142,-0.0094,-0.0128,-0.0107,0.0197,0.0018,0.2042,,,,,,,,
01:24.6,-0.9871,0.0142,-0.0083,-0.0159,-0.0118,0.0197,0.0018,0.2042,,,,,,,,
01:24.6,-0.9865,0.0127,-0.0083,-0.0159,-0.0129,0.0197,0.0018,0.2042,,,,,,,,
01:24.6,-0.9867,0.0133,-0.0073,-0.0159,-0.0128,0.0197,0.0018,0.2042,,,,,,,,
01:24.7,-0.9865,0.0131,-0.0094,-0.0149,-0.0107,0.0197,0.0018,0.2042,,,,,,,,
01:24.7,-0.9866,0.0133,-0.0073,-0.0159,-0.0118,0.0197,0.0018,0.2041,,,,,,,,
01:24.7,-0.9882,0.0132,-0.0084,-0.0138,-0.0118,0.0197,0.0018,0.2041,,,,,,,,
01:24.7,-0.9862,0.0116,-0.0083,-0.0159,-0.0139,0.0196,0.0018,0.2041,,,,,,,,
01:24.7,-0.9848,0.0136,-0.0084,-0.0149,-0.0107,0.0196,0.0018,0.2042,,,,,,,,
01:24.7,-0.9882,0.015,-0.0084,-0.0127,-0.0128,0.0196,0.0018,0.2042,,,,,,,,
01:24.7,-0.9882,0.0116,-0.0105,-0.0149,-0.0129,0.0196,0.0018,0.2041,,,,,,,,
01:24.7,-0.9869,0.0116,-0.0094,-0.0149,-0.0118,0.0196,0.0018,0.2041,,,,,,,,
01:24.7,-0.9849,0.0129,-0.0094,-0.0149,-0.0129,0.0196,0.0019,0.2041,,,,,,,,
01:24.7,-0.988,0.0149,-0.0094,-0.0149,-0.0139,0.0196,0.0019,0.2041,,,,,,,,
01:24.8,-0.9882,0.0118,-0.0094,-0.0138,-0.0097,0.0196,0.0019,0.2041,,,,,,,,
01:24.8,-0.988,0.0116,-0.0105,-0.0128,-0.0118,0.0195,0.0019,0.2041,,,,,,,,
01:24.8,-0.9839,0.0118,-0.0084,-0.0138,-0.0129,0.0195,0.0019,0.2041,,,,,,,,
01:24.8,-0.988,0.0159,-0.0094,-0.0149,-0.0118,0.0195,0.0019,0.2041,,,,,,,,
01:24.8,-0.9867,0.0118,-0.0094,-0.0138,-0.0118,0.0195,0.0019,0.2041,,,,,,,,
01:24.8,-0.9864,0.0131,-0.0094,-0.0128,-0.0118,0.0195,0.0019,0.2041,,,,,,,,
01:24.8,-0.9876,0.0134,-0.0105,-0.0149,-0.0107,0.0195,0.0019,0.2042,,,,,,,,
01:24.8,-0.9863,0.0122,-0.0105,-0.0138,-0.0129,0.0195,0.0019,0.2042,,,,,,,,
01:24.8,-0.9861,0.0135,-0.0084,-0.0149,-0.0118,0.0195,0.0019,0.2041,,,,,,,,
01:24.8,-0.9869,0.0137,-0.0083,-0.0159,-0.0129,0.0194,0.0019,0.2041,,,,,,,,
01:24.9,-0.9864,0.0129,-0.0083,-0.0149,-0.0129,0.0194,0.0019,0.2041,,,,,,,,
01:24.9,-0.9881,0.0134,-0.0083,-0.0149,-0.0129,0.0194,0.0019,0.2041,,,,,,,,
01:24.9,-0.986,0.0117,-0.0084,-0.0149,-0.0118,0.0194,0.0019,0.2041,,,,,,,,
01:24.9,-0.9868,0.0138,-0.0094,-0.0149,-0.0118,0.0194,0.0019,0.2041,,,,,,,,
01:24.9,-0.9867,0.013,-0.0094,-0.0138,-0.0118,0.0194,0.0019,0.2041,,,,,,,,
01:24.9,-0.9868,0.0131,-0.0083,-0.0159,-0.0118,0.0193,0.002,0.2041,,,,,,,,
01:24.9,-0.9882,0.0131,-0.0105,-0.0149,-0.0118,0.0193,0.002,0.2041,,,,,,,,
01:24.9,-0.9877,0.0116,-0.0073,-0.0159,-0.0128,0.0193,0.002,0.2041,,,,,,,,
01:24.9,-0.9863,0.0121,-0.0084,-0.0138,-0.0118,0.0193,0.002,0.2041,,,,,,,,
01:24.9,-0.9888,0.0135,-0.0094,-0.0138,-0.0118,0.0193,0.002,0.2041,,,,,,,,
01:25.0,-0.9867,0.011,-0.0094,-0.0128,-0.0129,0.0193,0.002,0.2041,,,,,,,,
01:25.0,-0.9875,0.0131,-0.0094,-0.016,-0.0118,0.0193,0.002,0.2041,,,,,,,,
01:25.0,-0.9864,0.0123,-0.0094,-0.0138,-0.0118,0.0193,0.002,0.2041,,,,,,,,
01:25.0,-0.9861,0.0134,-0.0084,-0.0149,-0.0118,0.0192,0.002,0.2041,,,,,,,,
01:25.0,-0.9871,0.0137,-0.0073,-0.0149,-0.0118,0.0192,0.002,0.2041,,,,,,,,
01:25.0,-0.9877,0.0127,-0.0105,-0.0138,-0.0129,0.0192,0.002,0.2041,,,,,,,,
01:25.0,-0.9874,0.0121,-0.0094,-0.0138,-0.0107,0.0192,0.002,0.2041,,,,,,,,
01:25.0,-0.9872,0.0125,-0.0094,-0.0138,-0.0107,0.0192,0.002,0.2041,,,,,,,,
01:25.0,-0.9861,0.0126,-0.0094,-0.0138,-0.0129,0.0192,0.002,0.2041,,,,,,,,
01:25.0,-0.9879,0.0138,-0.0084,-0.0138,-0.0118,0.0192,0.002,0.2041,,,,,,,,
01:25.1,-0.9851,0.0119,-0.0105,-0.0128,-0.0118,0.0192,0.002,0.2041,,,,,,,,
01:25.1,-0.9865,0.0147,-0.0083,-0.0159,-0.0118,0.0192,0.002,0.2041,,,,,,,,
01:25.1,-0.987,0.0133,-0.0084,-0.0138,-0.0107,0.0192,0.0021,0.2041,,,,,,,,
01:25.1,-0.9865,0.0128,-0.0105,-0.016,-0.0107,0.0191,0.002,0.2041,,,,,,,,
01:25.1,-0.9878,0.0133,-0.0105,-0.016,-0.0118,0.0191,0.002,0.2041,,,,,,,,
01:25.1,-0.9869,0.012,-0.0105,-0.0149,-0.0139,0.0191,0.002,0.2041,,,,,,,,
01:25.1,-0.9863,0.0129,-0.0094,-0.0138,-0.0118,0.0191,0.002,0.2041,,,,,,,,
01:25.1,-0.9852,0.0135,-0.0105,-0.0138,-0.0107,0.0191,0.002,0.2041,,,,,,,,
01:25.1,-0.9848,0.0146,-0.0073,-0.0138,-0.0118,0.0191,0.0021,0.2041,,,,,,,,
01:25.1,-0.986,0.015,-0.0094,-0.0149,-0.0129,0.0191,0.0021,0.2041,,,,,,,,
01:25.2,-0.9888,0.0139,-0.0073,-0.0138,-0.0118,0.0191,0.0021,0.2041,,,,,,,,
01:25.2,-0.9886,0.011,-0.0083,-0.0159,-0.0118,0.0191,0.0021,0.2041,,,,,,,,
01:25.2,-0.9856,0.0112,-0.0105,-0.017,-0.0118,0.0191,0.0021,0.2041,,,,,,,,
01:25.2,-0.9856,0.0142,-0.0105,-0.0128,-0.0118,0.0191,0.0021,0.2041,,,,,,,,
01:25.2,-0.9864,0.0142,-0.0084,-0.0138,-0.0118,0.0191,0.0021,0.2041,,,,,,,,
01:25.2,-0.9889,0.0134,-0.0094,-0.0138,-0.0118,0.019,0.0021,0.2041,,,,,,,,
01:25.2,-0.9881,0.0109,-0.0094,-0.016,-0.0118,0.019,0.0021,0.2041,,,,,,,,
01:25.2,-0.986,0.0117,-0.0084,-0.0138,-0.0129,0.019,0.0021,0.2041,,,,,,,,
01:25.2,-0.9845,0.0138,-0.0105,-0.0138,-0.0118,0.019,0.0021,0.2041,,,,,,,,
01:25.2,-0.9851,0.0153,-0.0105,-0.0149,-0.0107,0.019,0.0021,0.2041,,,,,,,,
01:25.3,-0.9914,0.0147,-0.0084,-0.0128,-0.0118,0.019,0.0021,0.2041,,,,,,,,
01:25.3,-0.9871,0.0084,-0.0083,-0.0149,-0.0129,0.019,0.0021,0.2041,,,,,,,,
01:25.3,-0.9839,0.0127,-0.0105,-0.0138,-0.0129,0.019,0.0021,0.2041,,,,,,,,
01:25.3,-0.9879,0.0159,-0.0094,-0.0149,-0.0129,0.019,0.0021,0.2041,,,,,,,,
01:25.3,-0.9876,0.012,-0.0083,-0.0159,-0.0118,0.019,0.0022,0.2041,,,,,,,,
01:25.3,-0.9857,0.0122,-0.0094,-0.0138,-0.0118,0.0189,0.0022,0.2041,,,,,,,,
01:25.3,-0.9843,0.0141,-0.0094,-0.0149,-0.0097,0.0189,0.0022,0.2041,,,,,,,,
01:25.3,-0.9884,0.0155,-0.0084,-0.0149,-0.0107,0.0189,0.0022,0.2041,,,,,,,,
01:25.3,-0.988,0.0114,-0.0084,-0.0149,-0.0118,0.0189,0.0022,0.2041,,,,,,,,
01:25.3,-0.985,0.0118,-0.0094,-0.0149,-0.0118,0.0189,0.0022,0.2041,,,,,,,,
01:25.4,-0.9878,0.0148,-0.0094,-0.0138,-0.0129,0.0189,0.0022,0.2041,,,,,,,,
01:25.4,-0.9881,0.012,-0.0083,-0.0159,-0.0118,0.0189,0.0022,0.2041,,,,,,,,
01:25.4,-0.9857,0.0117,-0.0094,-0.0149,-0.0118,0.0189,0.0022,0.2041,,,,,,,,
01:25.4,-0.9846,0.0141,-0.0094,-0.0138,-0.0107,0.0188,0.0022,0.2041,,,,,,,,
01:25.4,-0.9894,0.0152,-0.0083,-0.0159,-0.0129,0.0188,0.0022,0.2041,,,,,,,,
01:25.4,-0.9873,0.0105,-0.0105,-0.0138,-0.0129,0.0188,0.0022,0.2041,,,,,,,,
01:25.4,-0.9864,0.0125,-0.0083,-0.0149,-0.0139,0.0188,0.0022,0.2041,,,,,,,,
01:25.4,-0.9883,0.0134,-0.0094,-0.0128,-0.0129,0.0188,0.0022,0.2041,,,,,,,,
01:25.4,-0.9855,0.0115,-0.0073,-0.0138,-0.0118,0.0188,0.0022,0.2041,,,,,,,,
01:25.4,-0.986,0.0143,-0.0094,-0.016,-0.0118,0.0188,0.0022,0.2041,,,,,,,,
01:25.5,-0.9867,0.0138,-0.0094,-0.0149,-0.0139,0.0188,0.0022,0.2041,,,,,,,,
01:25.5,-0.9868,0.0131,-0.0094,-0.0138,-0.0129,0.0188,0.0022,0.2041,,,,,,,,
01:25.5,-0.9868,0.013,-0.0084,-0.0149,-0.0107,0.0187,0.0022,0.2041,,,,,,,,
01:25.5,-0.9875,0.013,-0.0073,-0.0149,-0.0118,0.0187,0.0022,0.2041,,,,,,,,
01:25.5,-0.9881,0.0123,-0.0094,-0.0149,-0.0118,0.0187,0.0023,0.2041,,,,,,,,
01:25.5,-0.9857,0.0117,-0.0094,-0.0128,-0.0129,0.0187,0.0023,0.2041,,,,,,,,
01:25.5,-0.9863,0.0141,-0.0084,-0.0138,-0.0129,0.0187,0.0023,0.2041,,,,,,,,
01:25.5,-0.9865,0.0136,-0.0105,-0.0138,-0.0118,0.0187,0.0023,0.2041,,,,,,,,
01:25.5,-0.9869,0.0134,-0.0115,-0.0138,-0.0129,0.0187,0.0023,0.2041,,,,,,,,
01:25.5,-0.986,0.0129,-0.0094,-0.0149,-0.0129,0.0187,0.0023,0.2041,,,,,,,,
01:25.6,-0.9866,0.0138,-0.0083,-0.0159,-0.0118,0.0187,0.0023,0.2041,,,,,,,,
01:25.6,-0.988,0.0133,-0.0094,-0.0128,-0.0129,0.0187,0.0023,0.2041,,,,,,,,
01:25.6,-0.9864,0.0118,-0.0105,-0.0138,-0.0118,0.0187,0.0023,0.2041,,,,,,,,
01:25.6,-0.9868,0.0134,-0.0084,-0.0128,-0.0118,0.0187,0.0023,0.2041,,,,,,,,
01:25.6,-0.9874,0.0131,-0.0094,-0.0138,-0.0129,0.0187,0.0023,0.2041,,,,,,,,
01:25.6,-0.9885,0.0124,-0.0084,-0.0128,-0.0107,0.0187,0.0023,0.2041,,,,,,,,
01:25.6,-0.9879,0.0113,-0.0094,-0.0138,-0.0118,0.0186,0.0023,0.2041,,,,,,,,
01:25.6,-0.9862,0.0119,-0.0094,-0.0138,-0.0107,0.0186,0.0023,0.2041,,,,,,,,
01:25.6,-0.9874,0.0136,-0.0084,-0.0128,-0.0118,0.0186,0.0023,0.2041,,,,,,,,
01:25.6,-0.9858,0.0124,-0.0084,-0.0138,-0.0118,0.0186,0.0023,0.2041,,,,,,,,
01:25.7,-0.9866,0.014,-0.0105,-0.0128,-0.0118,0.0186,0.0023,0.2041,,,,,,,,
01:25.7,-0.9872,0.0132,-0.0084,-0.0149,-0.0107,0.0186,0.0023,0.2041,,,,,,,,
01:25.7,-0.9867,0.0126,-0.0094,-0.0138,-0.0107,0.0186,0.0023,0.2041,,,,,,,,
01:25.7,-0.9873,0.0131,-0.0073,-0.0149,-0.0107,0.0186,0.0023,0.2041,,,,,,,,
01:25.7,-0.9874,0.0125,-0.0105,-0.0138,-0.0118,0.0186,0.0023,0.2041,,,,,,,,
01:25.7,-0.9862,0.0125,-0.0084,-0.0138,-0.0118,0.0186,0.0023,0.2041,,,,,,,,
01:25.7,-0.9858,0.0136,-0.0094,-0.0138,-0.0118,0.0186,0.0023,0.2041,,,,,,,,
01:25.7,-0.9871,0.014,-0.0084,-0.0138,-0.0118,0.0186,0.0023,0.2041,,,,,,,,
01:25.7,-0.9858,0.0128,-0.0084,-0.0138,-0.0129,0.0186,0.0024,0.2041,,,,,,,,
01:25.7,-0.9857,0.014,-0.0083,-0.0149,-0.0129,0.0185,0.0024,0.2041,,,,,,,,
01:25.7,-0.9862,0.0142,-0.0083,-0.0159,-0.0129,0.0185,0.0024,0.2041,,,,,,,,
01:25.8,-0.9887,0.0137,-0.0084,-0.0138,-0.0118,0.0185,0.0024,0.2041,,,,,,,,
01:25.8,-0.9865,0.0111,-0.0105,-0.016,-0.0118,0.0185,0.0024,0.2041,,,,,,,,
01:25.8,-0.9871,0.0133,-0.0094,-0.0149,-0.0118,0.0185,0.0024,0.2041,,,,,,,,
01:25.8,-0.9874,0.0127,-0.0094,-0.0138,-0.0129,0.0184,0.0024,0.2041,,,,,,,,
01:25.8,-0.985,0.0124,-0.0094,-0.0128,-0.0129,0.0184,0.0024,0.2041,,,,,,,,
01:25.8,-0.9855,0.0148,-0.0083,-0.0149,-0.0129,0.0184,0.0024,0.2041,,,,,,,,
01:25.8,-0.9885,0.0143,-0.0084,-0.0149,-0.0118,0.0184,0.0024,0.2041,,,,,,,,
01:25.8,-0.988,0.0113,-0.0084,-0.0138,-0.0129,0.0184,0.0024,0.2041,,,,,,,,
01:25.8,-0.9857,0.0119,-0.0094,-0.0138,-0.0129,0.0184,0.0024,0.2041,,,,,,,,
01:25.8,-0.9854,0.0141,-0.0094,-0.0138,-0.0107,0.0183,0.0024,0.2041,,,,,,,,
01:25.9,-0.9862,0.0145,-0.0084,-0.0149,-0.0107,0.0183,0.0024,0.2041,,,,,,,,
01:25.9,-0.9865,0.0136,-0.0083,-0.0159,-0.0129,0.0183,0.0024,0.2041,,,,,,,,
01:25.9,-0.9855,0.0133,-0.0105,-0.0159,-0.0139,0.0183,0.0024,0.2041,,,,,,,,
01:25.9,-0.9871,0.0144,-0.0094,-0.0149,-0.0118,0.0183,0.0024,0.2041,,,,,,,,
01:25.9,-0.9879,0.0127,-0.0084,-0.0138,-0.0118,0.0183,0.0024,0.2041,,,,,,,,
01:25.9,-0.9874,0.0119,-0.0094,-0.0128,-0.0118,0.0182,0.0024,0.2041,,,,,,,,
01:25.9,-0.9861,0.0124,-0.0084,-0.0149,-0.0118,0.0182,0.0024,0.2041,,,,,,,,
01:25.9,-0.9874,0.0137,-0.0105,-0.0138,-0.0129,0.0182,0.0024,0.204,,,,,,,,
01:25.9,-0.9866,0.0124,-0.0105,-0.0149,-0.0118,0.0182,0.0024,0.2041,,,,,,,,
01:25.9,-0.987,0.0133,-0.0094,-0.0149,-0.0118,0.0182,0.0024,0.2041,,,,,,,,
01:26.0,-0.9879,0.0129,-0.0105,-0.016,-0.0107,0.0181,0.0024,0.2041,,,,,,,,
01:26.0,-0.9883,0.0119,-0.0094,-0.0128,-0.0118,0.0181,0.0024,0.2041,,,,,,,,
01:26.0,-0.9881,0.0115,-0.0094,-0.0149,-0.0129,0.0181,0.0024,0.2041,,,,,,,,
01:26.0,-0.9879,0.0117,-0.0105,-0.0149,-0.0129,0.0181,0.0024,0.2041,,,,,,,,
01:26.0,-0.9876,0.0119,-0.0084,-0.0128,-0.0118,0.0181,0.0024,0.204,,,,,,,,
01:26.0,-0.9867,0.0122,-0.0094,-0.016,-0.0118,0.0181,0.0024,0.2041,,,,,,,,
01:26.0,-0.9863,0.0136,-0.0094,-0.0138,-0.0118,0.018,0.0024,0.2041,,,,,,,,
01:26.0,-0.9877,0.0136,-0.0084,-0.0138,-0.0118,0.018,0.0024,0.204,,,,,,,,
01:26.0,-0.9866,0.0121,-0.0094,-0.0149,-0.0118,0.018,0.0024,0.204,,,,,,,,
01:26.0,-0.9861,0.0132,-0.0105,-0.0138,-0.0129,0.018,0.0024,0.204,,,,,,,,
01:26.1,-0.9876,0.0137,-0.0084,-0.0138,-0.0107,0.018,0.0024,0.204,,,,,,,,
01:26.1,-0.9857,0.0123,-0.0105,-0.0128,-0.0129,0.018,0.0024,0.204,,,,,,,,
01:26.1,-0.985,0.0141,-0.0105,-0.0149,-0.0129,0.018,0.0024,0.204,,,,,,,,
01:26.1,-0.9869,0.0148,-0.0084,-0.0149,-0.0118,0.018,0.0024,0.204,,,,,,,,
01:26.1,-0.9875,0.0129,-0.0105,-0.0149,-0.0118,0.018,0.0024,0.204,,,,,,,,
01:26.1,-0.9866,0.0124,-0.0083,-0.0149,-0.0139,0.0179,0.0024,0.204,,,,,,,,
01:26.1,-0.9868,0.0132,-0.0073,-0.0149,-0.0118,0.0179,0.0024,0.204,,,,,,,,
01:26.1,-0.9868,0.0131,-0.0094,-0.0149,-0.0118,0.0179,0.0024,0.204,,,,,,,,
01:26.1,-0.9856,0.013,-0.0105,-0.0149,-0.0129,0.0179,0.0024,0.204,,,,,,,,
01:26.1,-0.9856,0.0143,-0.0094,-0.0149,-0.0129,0.0179,0.0024,0.204,,,,,,,,
01:26.2,-0.9866,0.0142,-0.0084,-0.0138,-0.0107,0.0179,0.0024,0.204,,,,,,,,
01:26.2,-0.9874,0.0132,-0.0094,-0.0149,-0.0118,0.0179,0.0024,0.204,,,,,,,,
01:26.2,-0.9877,0.0125,-0.0094,-0.0128,-0.0107,0.0179,0.0024,0.204,,,,,,,,
01:26.2,-0.9875,0.0121,-0.0105,-0.0149,-0.0118,0.0178,0.0024,0.204,,,,,,,,
01:26.2,-0.9865,0.0124,-0.0094,-0.0117,-0.0129,0.0178,0.0024,0.204,,,,,,,,
01:26.2,-0.9871,0.0133,-0.0094,-0.0149,-0.0118,0.0178,0.0024,0.204,,,,,,,,
01:26.2,-0.9873,0.0127,-0.0094,-0.0149,-0.0118,0.0178,0.0024,0.204,,,,,,,,
01:26.2,-0.9864,0.0126,-0.0084,-0.0138,-0.0118,0.0178,0.0024,0.204,,,,,,,,
01:26.2,-0.987,0.0134,-0.0094,-0.0138,-0.0129,0.0178,0.0024,0.204,,,,,,,,
01:26.2,-0.9864,0.0128,-0.0116,-0.0138,-0.0118,0.0178,0.0024,0.204,,,,,,,,
01:26.3,-0.9875,0.0135,-0.0094,-0.0149,-0.0118,0.0178,0.0024,0.204,,,,,,,,
01:26.3,-0.987,0.0123,-0.0094,-0.0149,-0.0118,0.0178,0.0024,0.204,,,,,,,,
01:26.3,-0.9869,0.0128,-0.0083,-0.0149,-0.0129,0.0177,0.0024,0.204,,,,,,,,
01:26.3,-0.9866,0.013,-0.0105,-0.0138,-0.0129,0.0177,0.0024,0.204,,,,,,,,
01:26.3,-0.9854,0.0133,-0.0115,-0.0149,-0.0107,0.0177,0.0024,0.204,,,,,,,,
01:26.3,-0.9871,0.0145,-0.0084,-0.0149,-0.0118,0.0177,0.0024,0.204,,,,,,,,
01:26.3,-0.9877,0.0127,-0.0105,-0.0149,-0.0118,0.0177,0.0024,0.204,,,,,,,,
01:26.3,-0.9867,0.0122,-0.0094,-0.0149,-0.0107,0.0177,0.0024,0.204,,,,,,,,
01:26.3,-0.9867,0.0132,-0.0094,-0.0138,-0.0118,0.0176,0.0024,0.204,,,,,,,,
01:26.3,-0.9865,0.0132,-0.0084,-0.0149,-0.0118,0.0176,0.0024,0.204,,,,,,,,
01:26.4,-0.9868,0.0134,-0.0094,-0.0138,-0.0129,0.0176,0.0024,0.204,,,,,,,,
01:26.4,-0.9854,0.013,-0.0083,-0.017,-0.0129,0.0176,0.0024,0.204,,,,,,,,
01:26.4,-0.9852,0.0145,-0.0083,-0.0159,-0.0118,0.0176,0.0024,0.204,,,,,,,,
01:26.4,-0.9858,0.0146,-0.0094,-0.0138,-0.0118,0.0176,0.0024,0.204,,,,,,,,
01:26.4,-0.9871,0.0141,-0.0094,-0.0128,-0.0129,0.0176,0.0024,0.204,,,,,,,,
01:26.4,-0.9874,0.0128,-0.0105,-0.0149,-0.0129,0.0176,0.0024,0.204,,,,,,,,
01:26.4,-0.9871,0.0125,-0.0084,-0.0149,-0.0118,0.0175,0.0024,0.204,,,,,,,,
01:26.4,-0.9871,0.0127,-0.0084,-0.0149,-0.0107,0.0175,0.0024,0.204,,,,,,,,
01:26.4,-0.9875,0.0127,-0.0094,-0.016,-0.0107,0.0175,0.0024,0.204,,,,,,,,
01:26.4,-0.9869,0.0123,-0.0094,-0.0149,-0.0129,0.0175,0.0024,0.204,,,,,,,,
01:26.5,-0.9863,0.013,-0.0094,-0.0149,-0.0107,0.0175,0.0024,0.204,,,,,,,,
01:26.5,-0.9865,0.0136,-0.0084,-0.0149,-0.0107,0.0174,0.0025,0.204,,,,,,,,
01:26.5,-0.9875,0.0133,-0.0094,-0.0149,-0.0118,0.0174,0.0025,0.204,,,,,,,,
01:26.5,-0.9873,0.0123,-0.0083,-0.0159,-0.0118,0.0174,0.0025,0.204,,,,,,,,
01:26.5,-0.9871,0.0125,-0.0073,-0.0149,-0.0128,0.0174,0.0025,0.204,,,,,,,,
01:26.5,-0.9862,0.0127,-0.0094,-0.0138,-0.0118,0.0174,0.0025,0.204,,,,,,,,
01:26.5,-0.9872,0.0137,-0.0094,-0.0138,-0.0107,0.0174,0.0025,0.204,,,,,,,,
01:26.5,-0.9865,0.0126,-0.0084,-0.0149,-0.0118,0.0173,0.0025,0.204,,,,,,,,
01:26.5,-0.9859,0.0134,-0.0094,-0.0149,-0.0107,0.0173,0.0025,0.204,,,,,,,,
01:26.5,-0.9868,0.014,-0.0105,-0.0138,-0.0118,0.0173,0.0025,0.204,,,,,,,,
01:26.6,-0.9859,0.0131,-0.0094,-0.0138,-0.0129,0.0173,0.0025,0.204,,,,,,,,
01:26.6,-0.9871,0.014,-0.0084,-0.0138,-0.0129,0.0173,0.0025,0.204,,,,,,,,
01:26.6,-0.9866,0.0128,-0.0073,-0.0138,-0.0107,0.0173,0.0025,0.204,,,,,,,,
01:26.6,-0.9873,0.0132,-0.0105,-0.016,-0.0118,0.0173,0.0025,0.204,,,,,,,,
01:26.6,-0.9872,0.0126,-0.0105,-0.0138,-0.0107,0.0172,0.0025,0.2041,,,,,,,,
01:26.6,-0.9866,0.0127,-0.0084,-0.0149,-0.0118,0.0172,0.0025,0.2041,,,,,,,,
01:26.6,-0.9861,0.0133,-0.0094,-0.0138,-0.0118,0.0172,0.0025,0.2041,,,,,,,,
01:26.6,-0.9868,0.0137,-0.0094,-0.0149,-0.0107,0.0172,0.0025,0.2041,,,,,,,,
01:26.6,-0.9874,0.0131,-0.0094,-0.0149,-0.0129,0.0172,0.0025,0.2041,,,,,,,,
01:26.6,-0.9874,0.0125,-0.0105,-0.0138,-0.0107,0.0172,0.0025,0.2041,,,,,,,,
01:26.7,-0.9873,0.0125,-0.0094,-0.0128,-0.0097,0.0172,0.0025,0.2041,,,,,,,,
01:26.7,-0.9872,0.0125,-0.0105,-0.0128,-0.0118,0.0172,0.0025,0.2041,,,,,,,,
01:26.7,-0.988,0.0127,-0.0094,-0.0149,-0.0107,0.0172,0.0025,0.2041,,,,,,,,
01:26.7,-0.9869,0.0118,-0.0084,-0.0138,-0.0129,0.0172,0.0025,0.2041,,,,,,,,
01:26.7,-0.9864,0.013,-0.0094,-0.0128,-0.0118,0.0172,0.0025,0.2041,,,,,,,,
01:26.7,-0.9856,0.0135,-0.0094,-0.0138,-0.0118,0.0172,0.0025,0.2041,,,,,,,,
01:26.7,-0.9864,0.0143,-0.0094,-0.0138,-0.0107,0.0172,0.0025,0.2041,,,,,,,,
01:26.7,-0.9861,0.0134,-0.0084,-0.0149,-0.0118,0.0171,0.0025,0.2041,,,,,,,,
01:26.7,-0.9863,0.0138,-0.0105,-0.016,-0.0118,0.0171,0.0025,0.2041,,,,,,,,
01:26.7,-0.9862,0.0136,-0.0094,-0.0138,-0.0129,0.0171,0.0025,0.2041,,,,,,,,
01:26.8,-0.9869,0.0136,-0.0084,-0.0149,-0.0107,0.0171,0.0025,0.2041,,,,,,,,
01:26.8,-0.9874,0.0129,-0.0105,-0.0149,-0.0129,0.0171,0.0025,0.2041,,,,,,,,
01:26.8,-0.9874,0.0125,-0.0115,-0.016,-0.0118,0.0171,0.0025,0.2041,,,,,,,,
01:26.8,-0.9883,0.0124,-0.0094,-0.0159,-0.0129,0.0171,0.0025,0.2041,,,,,,,,
01:26.8,-0.9873,0.0116,-0.0094,-0.0149,-0.0118,0.017,0.0025,0.2041,,,,,,,,
01:26.8,-0.9879,0.0125,-0.0084,-0.0138,-0.0118,0.017,0.0025,0.2041,,,,,,,,
01:26.8,-0.9871,0.012,-0.0094,-0.0149,-0.0107,0.017,0.0025,0.2041,,,,,,,,
01:26.8,-0.9862,0.0128,-0.0084,-0.0127,-0.0128,0.017,0.0025,0.2041,,,,,,,,
01:26.8,-0.9852,0.0136,-0.0116,-0.0128,-0.0118,0.017,0.0025,0.2041,,,,,,,,
01:26.8,-0.9867,0.0147,-0.0105,-0.0128,-0.0118,0.017,0.0024,0.2041,,,,,,,,
01:26.9,-0.9864,0.0132,-0.0105,-0.0128,-0.0118,0.017,0.0024,0.2041,,,,,,,,
01:26.9,-0.9874,0.0135,-0.0084,-0.0138,-0.0129,0.017,0.0024,0.2041,,,,,,,,
01:26.9,-0.9878,0.0125,-0.0105,-0.0138,-0.0129,0.017,0.0024,0.2041,,,,,,,,
01:26.9,-0.9862,0.012,-0.0094,-0.0138,-0.0129,0.017,0.0024,0.2041,,,,,,,,
01:26.9,-0.9861,0.0137,-0.0094,-0.0138,-0.0107,0.017,0.0024,0.2041,,,,,,,,
01:26.9,-0.9874,0.0138,-0.0084,-0.0138,-0.0118,0.017,0.0024,0.2041,,,,,,,,
01:26.9,-0.9869,0.0125,-0.0084,-0.0149,-0.0118,0.017,0.0024,0.2041,,,,,,,,
01:26.9,-0.9865,0.013,-0.0094,-0.0149,-0.0118,0.0169,0.0024,0.2041,,,,,,,,
01:26.9,-0.9866,0.0134,-0.0094,-0.0128,-0.0118,0.0169,0.0024,0.2041,,,,,,,,
01:26.9,-0.9881,0.0132,-0.0105,-0.0138,-0.0129,0.0169,0.0024,0.2041,,,,,,,,
01:27.0,-0.9869,0.0118,-0.0094,-0.0149,-0.0129,0.0169,0.0024,0.2041,,,,,,,,
01:27.0,-0.9869,0.0129,-0.0083,-0.0159,-0.0118,0.0169,0.0025,0.2041,,,,,,,,
01:27.0,-0.9865,0.0129,-0.0073,-0.0138,-0.0128,0.0169,0.0025,0.2041,,,,,,,,
01:27.0,-0.9872,0.0134,-0.0084,-0.0128,-0.0118,0.0169,0.0025,0.2041,,,,,,,,
01:27.0,-0.9884,0.0127,-0.0094,-0.0138,-0.0118,0.0169,0.0025,0.2041,,,,,,,,
01:27.0,-0.987,0.0115,-0.0105,-0.0138,-0.0129,0.0168,0.0025,0.2041,,,,,,,,
01:27.0,-0.9868,0.0129,-0.0094,-0.0149,-0.0097,0.0168,0.0025,0.2041,,,,,,,,
01:27.0,-0.9866,0.0131,-0.0084,-0.0149,-0.0107,0.0168,0.0025,0.2041,,,,,,,,
01:27.0,-0.9867,0.0132,-0.0115,-0.0138,-0.0129,0.0168,0.0025,0.2041,,,,,,,,
01:27.0,-0.9862,0.0132,-0.0105,-0.0138,-0.0107,0.0168,0.0025,0.2041,,,,,,,,
01:27.1,-0.987,0.0137,-0.0105,-0.0149,-0.0118,0.0168,0.0025,0.2041,,,,,,,,
01:27.1,-0.9861,0.0129,-0.0105,-0.016,-0.0118,0.0168,0.0025,0.2041,,,,,,,,
01:27.1,-0.9861,0.0138,-0.0084,-0.0138,-0.0118,0.0168,0.0025,0.2041,,,,,,,,
01:27.1,-0.9875,0.0138,-0.0094,-0.0117,-0.0118,0.0168,0.0024,0.2041,,,,,,,,
01:27.1,-0.9867,0.0123,-0.0084,-0.0138,-0.0129,0.0168,0.0025,0.2041,,,,,,,,
01:27.1,-0.9867,0.0131,-0.0094,-0.0138,-0.0139,0.0168,0.0025,0.2041,,,,,,,,
01:27.1,-0.9867,0.0132,-0.0083,-0.0149,-0.0129,0.0167,0.0025,0.2041,,,,,,,,
01:27.1,-0.9877,0.0132,-0.0084,-0.0127,-0.0128,0.0167,0.0025,0.2041,,,,,,,,
01:27.1,-0.9872,0.0122,-0.0073,-0.0159,-0.0107,0.0167,0.0025,0.2041,,,,,,,,
01:27.1,-0.9859,0.0126,-0.0105,-0.016,-0.0129,0.0167,0.0025,0.2041,,,,,,,,
01:27.1,-0.9857,0.014,-0.0094,-0.0138,-0.0129,0.0167,0.0025,0.2041,,,,,,,,
01:27.2,-0.9867,0.0141,-0.0073,-0.0159,-0.0128,0.0167,0.0025,0.2041,,,,,,,,
01:27.2,-0.9877,0.0131,-0.0105,-0.0128,-0.0097,0.0167,0.0025,0.2041,,,,,,,,
01:27.2,-0.9873,0.0121,-0.0105,-0.016,-0.0118,0.0167,0.0025,0.2041,,,,,,,,
01:27.2,-0.9864,0.0126,-0.0094,-0.0128,-0.0118,0.0167,0.0025,0.2041,,,,,,,,
01:27.2,-0.9873,0.0135,-0.0084,-0.0149,-0.0118,0.0167,0.0025,0.2041,,,,,,,,
01:27.2,-0.9872,0.0126,-0.0094,-0.0149,-0.0107,0.0166,0.0025,0.2041,,,,,,,,
01:27.2,-0.987,0.0126,-0.0094,-0.016,-0.0118,0.0166,0.0025,0.2041,,,,,,,,
01:27.2,-0.9872,0.0129,-0.0094,-0.0117,-0.0129,0.0166,0.0025,0.2041,,,,,,,,
01:27.2,-0.9875,0.0127,-0.0105,-0.0138,-0.0118,0.0166,0.0024,0.2041,,,,,,,,
01:27.2,-0.9869,0.0123,-0.0094,-0.0149,-0.0107,0.0166,0.0024,0.2042,,,,,,,,
01:27.3,-0.9863,0.0129,-0.0094,-0.0117,-0.0129,0.0166,0.0025,0.2042,,,,,,,,
01:27.3,-0.988,0.0135,-0.0084,-0.0138,-0.0129,0.0166,0.0025,0.2041,,,,,,,,
01:27.3,-0.9874,0.0119,-0.0084,-0.0149,-0.0118,0.0166,0.0025,0.2041,,,,,,,,
01:27.3,-0.9865,0.0125,-0.0084,-0.0138,-0.0118,0.0166,0.0025,0.2041,,,,,,,,
01:27.3,-0.9866,0.0133,-0.0105,-0.0149,-0.0118,0.0165,0.0025,0.2041,,,,,,,,
01:27.3,-0.9871,0.0132,-0.0105,-0.0149,-0.0118,0.0165,0.0025,0.2041,,,,,,,,
01:27.3,-0.9884,0.0127,-0.0094,-0.0138,-0.0118,0.0165,0.0025,0.2041,,,,,,,,
01:27.3,-0.9875,0.0115,-0.0083,-0.0159,-0.0139,0.0165,0.0025,0.2041,,,,,,,,
01:27.3,-0.9867,0.0124,-0.0094,-0.0149,-0.0118,0.0165,0.0025,0.2041,,,,,,,,
01:27.3,-0.9864,0.0132,-0.0094,-0.017,-0.0118,0.0164,0.0025,0.2041,,,,,,,,
01:27.4,-0.9898,0.0134,-0.0094,-0.0138,-0.0118,0.0164,0.0025,0.2041,,,,,,,,
01:27.4,-0.9919,0.01,-0.0083,-0.0159,-0.0129,0.0164,0.0025,0.2041,,,,,,,,
01:27.4,-0.9929,0.008,-0.0094,-0.0138,-0.0129,0.0164,0.0025,0.2041,,,,,,,,
01:27.4,-0.9895,0.0069,-0.0073,-0.0159,-0.0118,0.0164,0.0025,0.2041,,,,,,,,
01:27.4,-0.9863,0.0104,-0.0073,-0.0159,-0.0128,0.0163,0.0025,0.2041,,,,,,,,
01:27.4,-0.983,0.0135,-0.0094,-0.0159,-0.0129,0.0163,0.0025,0.2041,,,,,,,,
01:27.4,-0.9813,0.0168,-0.0084,-0.0138,-0.0118,0.0163,0.0025,0.2041,,,,,,,,
01:27.4,-0.9824,0.0186,-0.0094,-0.0138,-0.0129,0.0163,0.0025,0.2041,,,,,,,,
01:27.4,-0.9853,0.0175,-0.0084,-0.0138,-0.0118,0.0163,0.0025,0.2041,,,,,,,,
01:27.4,-0.987,0.0146,-0.0094,-0.0149,-0.0107,0.0163,0.0025,0.2041,,,,,,,,
01:27.5,-0.9868,0.0128,-0.0094,-0.0149,-0.0129,0.0163,0.0025,0.2041,,,,,,,,
01:27.5,-0.9866,0.013,-0.0094,-0.0128,-0.0097,0.0163,0.0025,0.2041,,,,,,,,
01:27.5,-0.9858,0.0132,-0.0094,-0.0149,-0.0118,0.0163,0.0025,0.2041,,,,,,,,
01:27.5,-0.9868,0.014,-0.0084,-0.0138,-0.0107,0.0162,0.0025,0.2041,,,,,,,,
01:27.5,-0.9877,0.013,-0.0094,-0.0128,-0.0118,0.0162,0.0025,0.2041,,,,,,,,
01:27.5,-0.9882,0.0121,-0.0105,-0.0138,-0.0118,0.0162,0.0025,0.2041,,,,,,,,
01:27.5,-0.9872,0.0117,-0.0083,-0.0149,-0.0129,0.0162,0.0025,0.2041,,,,,,,,
01:27.5,-0.9863,0.0127,-0.0105,-0.0149,-0.0118,0.0162,0.0025,0.2041,,,,,,,,
01:27.5,-0.9856,0.0136,-0.0084,-0.0149,-0.0107,0.0162,0.0025,0.2042,,,,,,,,
01:27.5,-0.9855,0.0142,-0.0094,-0.0128,-0.0118,0.0162,0.0025,0.2042,,,,,,,,
01:27.6,-0.9869,0.0143,-0.0105,-0.0128,-0.0118,0.0162,0.0025,0.2042,,,,,,,,
01:27.6,-0.987,0.013,-0.0105,-0.0149,-0.0118,0.0162,0.0025,0.2042,,,,,,,,
01:27.6,-0.9866,0.0129,-0.0105,-0.0149,-0.0129,0.0161,0.0025,0.2041,,,,,,,,
01:27.6,-0.9868,0.0132,-0.0094,-0.0128,-0.0118,0.0161,0.0025,0.2041,,,,,,,,
01:27.6,-0.9867,0.013,-0.0083,-0.0159,-0.0118,0.0161,0.0025,0.2042,,,,,,,,
01:27.6,-0.9877,0.0131,-0.0094,-0.0149,-0.0118,0.0161,0.0025,0.2042,,,,,,,,
01:27.6,-0.987,0.0121,-0.0094,-0.0159,-0.0129,0.0161,0.0025,0.2042,,,,,,,,
01:27.6,-0.987,0.0129,-0.0094,-0.0138,-0.0118,0.0161,0.0025,0.2042,,,,,,,,
01:27.6,-0.9868,0.0128,-0.0094,-0.016,-0.0118,0.0161,0.0025,0.2042,,,,,,,,
01:27.6,-0.9874,0.0131,-0.0105,-0.0117,-0.0139,0.0161,0.0025,0.2041,,,,,,,,
01:27.7,-0.9878,0.0124,-0.0084,-0.0149,-0.0118,0.0161,0.0025,0.2041,,,,,,,,
01:27.7,-0.9852,0.012,-0.0084,-0.0149,-0.0118,0.016,0.0025,0.2042,,,,,,,,
01:27.7,-0.9859,0.0146,-0.0105,-0.0149,-0.0118,0.016,0.0025,0.2042,,,,,,,,
01:27.7,-0.9874,0.014,-0.0094,-0.0149,-0.0118,0.016,0.0025,0.2042,,,,,,,,
01:27.7,-0.9859,0.0125,-0.0094,-0.0138,-0.0097,0.016,0.0025,0.2042,,,,,,,,
01:27.7,-0.9881,0.014,-0.0094,-0.0149,-0.0118,0.016,0.0025,0.2042,,,,,,,,
01:27.7,-0.9872,0.0118,-0.0094,-0.0149,-0.0129,0.016,0.0025,0.2042,,,,,,,,
01:27.7,-0.9864,0.0126,-0.0094,-0.0149,-0.0118,0.016,0.0025,0.2042,,,,,,,,
01:27.7,-0.9869,0.0135,-0.0094,-0.0138,-0.0129,0.016,0.0025,0.2042,,,,,,,,
01:27.7,-0.9859,0.013,-0.0084,-0.0138,-0.0107,0.0159,0.0025,0.2042,,,,,,,,
01:27.8,-0.9871,0.0139,-0.0105,-0.0138,-0.0118,0.0159,0.0025,0.2042,,,,,,,,
01:27.8,-0.9876,0.0127,-0.0084,-0.0138,-0.0107,0.0159,0.0025,0.2042,,,,,,,,
01:27.8,-0.9863,0.0122,-0.0094,-0.0149,-0.0118,0.0159,0.0025,0.2042,,,,,,,,
01:27.8,-0.9851,0.0136,-0.0115,-0.0149,-0.0129,0.0159,0.0025,0.2042,,,,,,,,
01:27.8,-0.9874,0.0148,-0.0084,-0.0138,-0.0107,0.0159,0.0025,0.2042,,,,,,,,
01:27.8,-0.9863,0.0124,-0.0084,-0.0149,-0.0118,0.0159,0.0025,0.2042,,,,,,,,
01:27.8,-0.9874,0.0136,-0.0094,-0.0149,-0.0129,0.0159,0.0025,0.2042,,,,,,,,
01:27.8,-0.987,0.0125,-0.0084,-0.0138,-0.0118,0.0159,0.0025,0.2042,,,,,,,,
01:27.8,-0.9858,0.0129,-0.0084,-0.0149,-0.0097,0.0159,0.0025,0.2042,,,,,,,,
01:27.8,-0.9873,0.0141,-0.0094,-0.0149,-0.0107,0.0159,0.0025,0.2042,,,,,,,,
01:27.9,-0.9863,0.0126,-0.0105,-0.016,-0.0118,0.0158,0.0025,0.2042,,,,,,,,
01:27.9,-0.9873,0.0136,-0.0084,-0.0149,-0.0118,0.0158,0.0025,0.2042,,,,,,,,
01:27.9,-0.9869,0.0126,-0.0094,-0.0138,-0.0107,0.0158,0.0025,0.2042,,,,,,,,
01:27.9,-0.9859,0.0129,-0.0094,-0.0149,-0.0118,0.0158,0.0025,0.2042,,,,,,,,
01:27.9,-0.9857,0.014,-0.0105,-0.0138,-0.0129,0.0158,0.0025,0.2042,,,,,,,,
01:27.9,-0.9853,0.0142,-0.0094,-0.0149,-0.0118,0.0158,0.0025,0.2042,,,,,,,,
01:27.9,-0.9878,0.0145,-0.0084,-0.0138,-0.0118,0.0158,0.0025,0.2042,,,,,,,,
01:27.9,-0.9874,0.012,-0.0094,-0.0149,-0.0139,0.0158,0.0025,0.2042,,,,,,,,
01:27.9,-0.9871,0.0125,-0.0083,-0.0149,-0.0129,0.0157,0.0025,0.2042,,,,,,,,
01:27.9,-0.9865,0.0128,-0.0115,-0.016,-0.0118,0.0157,0.0025,0.2042,,,,,,,,
01:28.0,-0.987,0.0134,-0.0084,-0.0149,-0.0118,0.0157,0.0025,0.2042,,,,,,,,
01:28.0,-0.9863,0.0128,-0.0105,-0.0128,-0.0118,0.0157,0.0025,0.2042,,,,,,,,
01:28.0,-0.9865,0.0135,-0.0094,-0.0149,-0.0118,0.0157,0.0025,0.2042,,,,,,,,
01:28.0,-0.9878,0.0134,-0.0094,-0.016,-0.0118,0.0156,0.0025,0.2042,,,,,,,,
01:28.0,-0.9852,0.0121,-0.0105,-0.0138,-0.0139,0.0156,0.0025,0.2042,,,,,,,,
01:28.0,-0.9882,0.0146,-0.0094,-0.0138,-0.0129,0.0156,0.0025,0.2042,,,,,,,,
01:28.0,-0.9871,0.0117,-0.0105,-0.016,-0.0118,0.0156,0.0025,0.2042,,,,,,,,
01:28.0,-0.9879,0.0128,-0.0094,-0.017,-0.0118,0.0156,0.0025,0.2042,,,,,,,,
01:28.0,-0.9865,0.012,-0.0084,-0.0138,-0.0129,0.0156,0.0025,0.2042,,,,,,,,
01:28.0,-0.9872,0.0134,-0.0094,-0.0138,-0.0118,0.0156,0.0025,0.2042,,,,,,,,
01:28.1,-0.9861,0.0127,-0.0105,-0.017,-0.0129,0.0155,0.0025,0.2042,,,,,,,,
01:28.1,-0.9874,0.0137,-0.0094,-0.0138,-0.0107,0.0155,0.0025,0.2042,,,,,,,,
01:28.1,-0.9872,0.0125,-0.0083,-0.017,-0.0118,0.0155,0.0025,0.2042,,,,,,,,
01:28.1,-0.9863,0.0127,-0.0073,-0.0159,-0.0118,0.0155,0.0025,0.2042,,,,,,,,
01:28.1,-0.9883,0.0136,-0.0105,-0.0149,-0.0107,0.0155,0.0025,0.2042,,,,,,,,
01:28.1,-0.986,0.0115,-0.0094,-0.0149,-0.0118,0.0155,0.0025,0.2042,,,,,,,,
01:28.1,-0.9852,0.0139,-0.0094,-0.0138,-0.0107,0.0155,0.0025,0.2042,,,,,,,,
01:28.1,-0.9878,0.0147,-0.0094,-0.0149,-0.0118,0.0154,0.0025,0.2042,,,,,,,,
01:28.1,-0.9878,0.0121,-0.0094,-0.0159,-0.0129,0.0154,0.0025,0.2042,,,,,,,,
01:28.1,-0.9866,0.0121,-0.0105,-0.0138,-0.0118,0.0154,0.0025,0.2042,,,,,,,,
01:28.2,-0.9882,0.0132,-0.0105,-0.0138,-0.0107,0.0154,0.0025,0.2042,,,,,,,,
01:28.2,-0.9858,0.0117,-0.0105,-0.0128,-0.0118,0.0154,0.0025,0.2042,,,,,,,,
01:28.2,-0.9875,0.0141,-0.0084,-0.0138,-0.0129,0.0154,0.0025,0.2042,,,,,,,,
01:28.2,-0.9888,0.0123,-0.0084,-0.0138,-0.0129,0.0154,0.0025,0.2042,,,,,,,,
01:28.2,-0.9868,0.011,-0.0084,-0.0149,-0.0118,0.0154,0.0025,0.2042,,,,,,,,
01:28.2,-0.9871,0.0131,-0.0094,-0.0138,-0.0118,0.0154,0.0025,0.2042,,,,,,,,
01:28.2,-0.9882,0.0128,-0.0094,-0.0138,-0.0118,0.0154,0.0025,0.2042,,,,,,,,
01:28.2,-0.987,0.0117,-0.0094,-0.0138,-0.0118,0.0154,0.0025,0.2042,,,,,,,,
01:28.2,-0.9855,0.0129,-0.0084,-0.0149,-0.0118,0.0154,0.0025,0.2042,,,,,,,,
01:28.2,-0.9868,0.0144,-0.0094,-0.0149,-0.0118,0.0154,0.0025,0.2042,,,,,,,,
01:28.3,-0.9886,0.0131,-0.0105,-0.0149,-0.0129,0.0153,0.0025,0.2042,,,,,,,,
01:28.3,-0.9845,0.0112,-0.0094,-0.0149,-0.0129,0.0153,0.0025,0.2042,,,,,,,,
01:28.3,-0.9867,0.0154,-0.0094,-0.0138,-0.0129,0.0153,0.0025,0.2042,,,,,,,,
01:28.3,-0.9859,0.0132,-0.0094,-0.0149,-0.0129,0.0153,0.0025,0.2042,,,,,,,,
01:28.3,-0.9872,0.014,-0.0084,-0.0138,-0.0118,0.0153,0.0025,0.2042,,,,,,,,
01:28.3,-0.9864,0.0127,-0.0105,-0.0149,-0.0118,0.0153,0.0025,0.2042,,,,,,,,
01:28.3,-0.9867,0.0135,-0.0084,-0.0138,-0.0129,0.0153,0.0025,0.2042,,,,,,,,
01:28.3,-0.9878,0.0132,-0.0083,-0.0159,-0.0118,0.0153,0.0026,0.2042,,,,,,,,
01:28.3,-0.987,0.0121,-0.0094,-0.0149,-0.0129,0.0153,0.0026,0.2042,,,,,,,,
01:28.3,-0.9856,0.0129,-0.0073,-0.0149,-0.0118,0.0152,0.0026,0.2042,,,,,,,,
01:28.4,-0.9867,0.0143,-0.0073,-0.0149,-0.0128,0.0152,0.0026,0.2042,,,,,,,,
01:28.4,-0.9879,0.0132,-0.0105,-0.0138,-0.0118,0.0152,0.0026,0.2042,,,,,,,,
01:28.4,-0.9881,0.0119,-0.0105,-0.0138,-0.0107,0.0152,0.0026,0.2042,,,,,,,,
01:28.4,-0.9875,0.0118,-0.0094,-0.0128,-0.0118,0.0152,0.0026,0.2042,,,,,,,,
01:28.4,-0.988,0.0123,-0.0094,-0.0149,-0.0118,0.0152,0.0026,0.2042,,,,,,,,
01:28.4,-0.986,0.0119,-0.0094,-0.0149,-0.0118,0.0152,0.0026,0.2042,,,,,,,,
01:28.4,-0.9869,0.0139,-0.0084,-0.0149,-0.0118,0.0152,0.0026,0.2042,,,,,,,,
01:28.4,-0.9874,0.013,-0.0116,-0.0128,-0.0107,0.0152,0.0026,0.2042,,,,,,,,
01:28.4,-0.9858,0.0124,-0.0094,-0.016,-0.0107,0.0152,0.0026,0.2042,,,,,,,,
01:28.4,-0.9864,0.014,-0.0094,-0.0149,-0.0097,0.0152,0.0026,0.2042,,,,,,,,
01:28.5,-0.9866,0.0135,-0.0084,-0.0138,-0.0118,0.0152,0.0026,0.2042,,,,,,,,
01:28.5,-0.987,0.0133,-0.0094,-0.0149,-0.0107,0.0151,0.0026,0.2042,,,,,,,,
01:28.5,-0.9867,0.0128,-0.0094,-0.0128,-0.0129,0.0151,0.0026,0.2042,,,,,,,,
01:28.5,-0.9874,0.0131,-0.0083,-0.0149,-0.0129,0.0151,0.0026,0.2042,,,,,,,,
01:28.5,-0.9859,0.014,-0.0094,-0.017,-0.0118,0.0151,0.0026,0.2042,,,,,,,,
01:28.5,-0.9868,0.014,-0.0084,-0.0149,-0.0118,0.0151,0.0026,0.2042,,,,,,,,
01:28.5,-0.987,0.0131,-0.0105,-0.0138,-0.0118,0.0151,0.0026,0.2042,,,,,,,,
01:28.5,-0.9872,0.0128,-0.0084,-0.0149,-0.0107,0.0151,0.0026,0.2042,,,,,,,,
01:28.5,-0.9879,0.0127,-0.0073,-0.0149,-0.0118,0.0151,0.0026,0.2042,,,,,,,,
01:28.5,-0.9861,0.012,-0.0094,-0.016,-0.0118,0.015,0.0026,0.2042,,,,,,,,
01:28.6,-0.9871,0.0138,-0.0084,-0.0149,-0.0118,0.015,0.0026,0.2042,,,,,,,,
01:28.6,-0.9857,0.0127,-0.0105,-0.0149,-0.0129,0.015,0.0026,0.2042,,,,,,,,
01:28.6,-0.9867,0.0142,-0.0105,-0.016,-0.0118,0.015,0.0026,0.2042,,,,,,,,
01:28.6,-0.987,0.0132,-0.0116,-0.0138,-0.0118,0.015,0.0026,0.2042,,,,,,,,
01:28.6,-0.9871,0.0129,-0.0094,-0.0138,-0.0129,0.015,0.0026,0.2042,,,,,,,,
01:28.6,-0.9868,0.0128,-0.0094,-0.0128,-0.0129,0.015,0.0026,0.2042,,,,,,,,
01:28.6,-0.9869,0.013,-0.0094,-0.0138,-0.0129,0.015,0.0026,0.2042,,,,,,,,
01:28.6,-0.9864,0.013,-0.0094,-0.0138,-0.0129,0.0149,0.0026,0.2042,,,,,,,,
01:28.6,-0.9868,0.0135,-0.0094,-0.0138,-0.0118,0.0149,0.0026,0.2042,,,,,,,,
01:28.6,-0.9871,0.0131,-0.0094,-0.0138,-0.0118,0.0149,0.0026,0.2042,,,,,,,,
01:28.6,-0.9871,0.0128,-0.0105,-0.0138,-0.0129,0.0149,0.0026,0.2042,,,,,,,,
01:28.7,-0.9876,0.0128,-0.0084,-0.0149,-0.0118,0.0149,0.0026,0.2042,,,,,,,,
01:28.7,-0.9863,0.0122,-0.0094,-0.0128,-0.0129,0.0149,0.0026,0.2042,,,,,,,,
01:28.7,-0.9878,0.0136,-0.0094,-0.0138,-0.0129,0.0149,0.0026,0.2042,,,,,,,,
01:28.7,-0.9876,0.0121,-0.0073,-0.0159,-0.0118,0.0149,0.0026,0.2042,,,,,,,,
01:28.7,-0.9864,0.0123,-0.0105,-0.0138,-0.0118,0.0149,0.0026,0.2042,,,,,,,,
01:28.7,-0.9868,0.0135,-0.0094,-0.0149,-0.0107,0.0149,0.0026,0.2042,,,,,,,,
01:28.7,-0.9873,0.0131,-0.0084,-0.0149,-0.0107,0.0149,0.0026,0.2042,,,,,,,,
01:28.7,-0.9867,0.0126,-0.0094,-0.0149,-0.0129,0.0149,0.0026,0.2042,,,,,,,,
01:28.7,-0.987,0.0132,-0.0094,-0.0149,-0.0129,0.0149,0.0026,0.2042,,,,,,,,
01:28.7,-0.9875,0.0129,-0.0084,-0.0138,-0.0107,0.0149,0.0026,0.2042,,,,,,,,
01:28.8,-0.9862,0.0124,-0.0094,-0.016,-0.0118,0.0148,0.0026,0.2042,,,,,,,,
01:28.8,-0.986,0.0137,-0.0094,-0.0138,-0.0118,0.0148,0.0026,0.2042,,,,,,,,
01:28.8,-0.9866,0.0139,-0.0094,-0.0149,-0.0129,0.0148,0.0026,0.2042,,,,,,,,
01:28.8,-0.9866,0.0133,-0.0094,-0.0117,-0.0118,0.0148,0.0026,0.2042,,,,,,,,
01:28.8,-0.9861,0.0133,-0.0094,-0.0149,-0.0118,0.0148,0.0026,0.2042,,,,,,,,
01:28.8,-0.9868,0.0138,-0.0094,-0.0128,-0.0129,0.0148,0.0026,0.2042,,,,,,,,
01:28.8,-0.9875,0.0131,-0.0084,-0.0138,-0.0118,0.0148,0.0026,0.2042,,,,,,,,
01:28.8,-0.9864,0.0124,-0.0094,-0.0159,-0.0129,0.0148,0.0026,0.2042,,,,,,,,
01:28.8,-0.9868,0.0135,-0.0094,-0.016,-0.0107,0.0148,0.0027,0.2042,,,,,,,,
01:28.8,-0.9861,0.0131,-0.0073,-0.0138,-0.0118,0.0148,0.0027,0.2042,,,,,,,,
01:28.9,-0.9866,0.0138,-0.0094,-0.016,-0.0118,0.0148,0.0027,0.2042,,,,,,,,
01:28.9,-0.987,0.0133,-0.0105,-0.0159,-0.0139,0.0148,0.0027,0.2042,,,,,,,,
01:28.9,-0.9878,0.0129,-0.0105,-0.0149,-0.0118,0.0148,0.0026,0.2042,,,,,,,,
01:28.9,-0.9873,0.0121,-0.0094,-0.0149,-0.0107,0.0147,0.0026,0.2042,,,,,,,,
01:28.9,-0.9861,0.0126,-0.0073,-0.0159,-0.0128,0.0147,0.0027,0.2042,,,,,,,,
01:28.9,-0.9861,0.0138,-0.0083,-0.017,-0.0118,0.0147,0.0027,0.2042,,,,,,,,
01:28.9,-0.9867,0.0138,-0.0094,-0.0149,-0.0118,0.0147,0.0027,0.2042,,,,,,,,
01:28.9,-0.9859,0.0132,-0.0105,-0.0149,-0.0118,0.0147,0.0027,0.2042,,,,,,,,
01:28.9,-0.9887,0.0139,-0.0094,-0.0128,-0.0118,0.0146,0.0027,0.2042,,,,,,,,
01:28.9,-0.9881,0.0112,-0.0105,-0.0138,-0.0118,0.0146,0.0026,0.2042,,,,,,,,
01:29.0,-0.9855,0.0118,-0.0094,-0.0138,-0.0118,0.0146,0.0026,0.2042,,,,,,,,
01:29.0,-0.9869,0.0144,-0.0116,-0.0138,-0.0118,0.0146,0.0026,0.2042,,,,,,,,
01:29.0,-0.9865,0.013,-0.0105,-0.0149,-0.0129,0.0146,0.0026,0.2042,,,,,,,,
01:29.0,-0.9862,0.0134,-0.0094,-0.0117,-0.0118,0.0146,0.0026,0.2042,,,,,,,,
01:29.0,-0.9868,0.0137,-0.0105,-0.0149,-0.0139,0.0146,0.0026,0.2042,,,,,,,,
01:29.0,-0.9881,0.013,-0.0105,-0.0138,-0.0129,0.0146,0.0026,0.2042,,,,,,,,
01:29.0,-0.9871,0.0118,-0.0094,-0.0128,-0.0118,0.0146,0.0026,0.2042,,,,,,,,
01:29.0,-0.9872,0.0128,-0.0094,-0.0128,-0.0118,0.0146,0.0026,0.2042,,,,,,,,
01:29.0,-0.9864,0.0127,-0.0084,-0.0149,-0.0118,0.0146,0.0026,0.2042,,,,,,,,
01:29.0,-0.9872,0.0135,-0.0094,-0.0149,-0.0118,0.0146,0.0026,0.2042,,,,,,,,
01:29.1,-0.9869,0.0127,-0.0094,-0.016,-0.0097,0.0146,0.0026,0.2042,,,,,,,,
01:29.1,-0.9853,0.013,-0.0094,-0.016,-0.0107,0.0145,0.0026,0.2042,,,,,,,,
01:29.1,-0.9871,0.0146,-0.0084,-0.0149,-0.0118,0.0145,0.0026,0.2042,,,,,,,,
01:29.1,-0.9875,0.0128,-0.0094,-0.016,-0.0118,0.0145,0.0026,0.2042,,,,,,,,
01:29.1,-0.9875,0.0124,-0.0084,-0.0149,-0.0118,0.0145,0.0026,0.2042,,,,,,,,
01:29.1,-0.9876,0.0124,-0.0094,-0.0149,-0.0107,0.0145,0.0026,0.2042,,,,,,,,
01:29.1,-0.9861,0.0123,-0.0083,-0.0149,-0.0129,0.0145,0.0026,0.2042,,,,,,,,
01:29.1,-0.9877,0.0137,-0.0094,-0.0138,-0.0118,0.0145,0.0026,0.2042,,,,,,,,
01:29.1,-0.9874,0.0122,-0.0105,-0.0149,-0.0129,0.0145,0.0026,0.2042,,,,,,,,
01:29.1,-0.9868,0.0125,-0.0094,-0.0117,-0.0118,0.0145,0.0026,0.2042,,,,,,,,
01:29.2,-0.9855,0.0131,-0.0084,-0.0138,-0.0107,0.0145,0.0026,0.2042,,,,,,,,
01:29.2,-0.9868,0.0144,-0.0084,-0.0138,-0.0118,0.0144,0.0026,0.2042,,,,,,,,
01:29.2,-0.9863,0.013,-0.0094,-0.0149,-0.0129,0.0144,0.0026,0.2042,,,,,,,,
01:29.2,-0.9856,0.0136,-0.0105,-0.0149,-0.0129,0.0144,0.0026,0.2042,,,,,,,,
01:29.2,-0.9857,0.0143,-0.0084,-0.0138,-0.0118,0.0144,0.0026,0.2042,,,,,,,,
01:29.2,-0.9866,0.0141,-0.0073,-0.0138,-0.0118,0.0144,0.0027,0.2042,,,,,,,,
01:29.2,-0.986,0.0133,-0.0094,-0.0138,-0.0129,0.0144,0.0027,0.2042,,,,,,,,
01:29.2,-0.987,0.0139,-0.0105,-0.0138,-0.0139,0.0144,0.0027,0.2042,,,,,,,,
01:29.2,-0.9874,0.0129,-0.0094,-0.0149,-0.0118,0.0144,0.0027,0.2042,,,,,,,,
01:29.2,-0.9867,0.0125,-0.0094,-0.0138,-0.0118,0.0144,0.0027,0.2042,,,,,,,,
01:29.3,-0.9879,0.0132,-0.0094,-0.0149,-0.0129,0.0144,0.0027,0.2042,,,,,,,,
01:29.3,-0.9866,0.012,-0.0105,-0.0149,-0.0129,0.0144,0.0027,0.2042,,,,,,,,
01:29.3,-0.9852,0.0132,-0.0094,-0.0159,-0.0129,0.0144,0.0027,0.2042,,,,,,,,
01:29.3,-0.987,0.0147,-0.0105,-0.0138,-0.0129,0.0144,0.0027,0.2042,,,,,,,,
01:29.3,-0.9879,0.0128,-0.0105,-0.0149,-0.0129,0.0144,0.0027,0.2042,,,,,,,,
01:29.3,-0.9888,0.012,-0.0084,-0.0149,-0.0118,0.0143,0.0027,0.2042,,,,,,,,
01:29.3,-0.9883,0.0111,-0.0094,-0.0138,-0.0129,0.0143,0.0027,0.2042,,,,,,,,
01:29.3,-0.9864,0.0116,-0.0094,-0.0149,-0.0118,0.0143,0.0027,0.2042,,,,,,,,
01:29.3,-0.9861,0.0135,-0.0084,-0.0149,-0.0118,0.0143,0.0027,0.2042,,,,,,,,
01:29.3,-0.9874,0.0138,-0.0094,-0.0149,-0.0139,0.0143,0.0027,0.2042,,,,,,,,
01:29.4,-0.9875,0.0125,-0.0094,-0.0149,-0.0107,0.0143,0.0027,0.2042,,,,,,,,
01:29.4,-0.9875,0.0123,-0.0084,-0.0128,-0.0118,0.0143,0.0027,0.2042,,,,,,,,
01:29.4,-0.9869,0.0124,-0.0094,-0.0159,-0.0129,0.0143,0.0027,0.2042,,,,,,,,
01:29.4,-0.9868,0.013,-0.0094,-0.0138,-0.0118,0.0143,0.0027,0.2042,,,,,,,,
01:29.4,-0.9873,0.0131,-0.0083,-0.0149,-0.0129,0.0142,0.0027,0.2042,,,,,,,,
01:29.4,-0.9872,0.0126,-0.0105,-0.0138,-0.0118,0.0142,0.0027,0.2042,,,,,,,,
01:29.4,-0.9873,0.0127,-0.0105,-0.0138,-0.0118,0.0142,0.0027,0.2042,,,,,,,,
01:29.4,-0.988,0.0126,-0.0084,-0.0149,-0.0118,0.0142,0.0027,0.2042,,,,,,,,
01:29.4,-0.986,0.0119,-0.0094,-0.0159,-0.0129,0.0142,0.0027,0.2042,,,,,,,,
01:29.4,-0.9872,0.0139,-0.0084,-0.0149,-0.0118,0.0142,0.0027,0.2042,,,,,,,,
01:29.5,-0.9868,0.0127,-0.0094,-0.0149,-0.0129,0.0142,0.0027,0.2042,,,,,,,,
01:29.5,-0.9869,0.0131,-0.0083,-0.0159,-0.0118,0.0142,0.0027,0.2042,,,,,,,,
01:29.5,-0.9882,0.013,-0.0094,-0.0117,-0.0107,0.0142,0.0027,0.2042,,,,,,,,
01:29.5,-0.9878,0.0117,-0.0094,-0.0117,-0.0129,0.0142,0.0027,0.2042,,,,,,,,
01:29.5,-0.9862,0.0121,-0.0084,-0.0138,-0.0129,0.0142,0.0027,0.2042,,,,,,,,
01:29.5,-0.9867,0.0137,-0.0084,-0.0138,-0.0118,0.0142,0.0027,0.2042,,,,,,,,
01:29.5,-0.9874,0.0132,-0.0094,-0.0149,-0.0118,0.0142,0.0027,0.2042,,,,,,,,
01:29.5,-0.9867,0.0125,-0.0094,-0.0128,-0.0129,0.0142,0.0027,0.2042,,,,,,,,
01:29.5,-0.9868,0.0132,-0.0105,-0.0149,-0.0107,0.0142,0.0027,0.2042,,,,,,,,
01:29.5,-0.9871,0.0131,-0.0094,-0.0149,-0.0129,0.0141,0.0027,0.2042,,,,,,,,
01:29.6,-0.9866,0.0128,-0.0084,-0.0138,-0.0107,0.0141,0.0027,0.2042,,,,,,,,
01:29.6,-0.9869,0.0133,-0.0084,-0.0149,-0.0118,0.0141,0.0027,0.2042,,,,,,,,
01:29.6,-0.9852,0.013,-0.0094,-0.0138,-0.0107,0.0141,0.0027,0.2042,,,,,,,,
01:29.6,-0.987,0.0147,-0.0094,-0.0128,-0.0118,0.0141,0.0027,0.2042,,,,,,,,
01:29.6,-0.987,0.0129,-0.0083,-0.0149,-0.0129,0.0141,0.0027,0.2042,,,,,,,,
01:29.6,-0.9862,0.0129,-0.0094,-0.0138,-0.0118,0.0141,0.0027,0.2042,,,,,,,,
01:29.6,-0.9862,0.0137,-0.0094,-0.0138,-0.0118,0.0141,0.0027,0.2042,,,,,,,,
01:29.6,-0.9881,0.0137,-0.0094,-0.0149,-0.0118,0.0141,0.0027,0.2042,,,,,,,,
01:29.6,-0.9867,0.0118,-0.0105,-0.016,-0.0118,0.0141,0.0027,0.2042,,,,,,,,
01:29.6,-0.9867,0.0132,-0.0084,-0.0138,-0.0107,0.0141,0.0028,0.2042,,,,,,,,
01:29.7,-0.9881,0.0132,-0.0084,-0.0138,-0.0129,0.0141,0.0028,0.2042,,,,,,,,
01:29.7,-0.9865,0.0118,-0.0094,-0.0128,-0.0118,0.0141,0.0028,0.2042,,,,,,,,
01:29.7,-0.9863,0.0134,-0.0105,-0.0138,-0.0118,0.014,0.0028,0.2042,,,,,,,,
01:29.7,-0.9872,0.0136,-0.0084,-0.0127,-0.0128,0.014,0.0028,0.2041,,,,,,,,
01:29.7,-0.9876,0.0127,-0.0073,-0.0138,-0.0107,0.014,0.0028,0.2041,,,,,,,,
01:29.7,-0.9861,0.0123,-0.0094,-0.0138,-0.0118,0.014,0.0028,0.2041,,,,,,,,
01:29.7,-0.9868,0.0138,-0.0084,-0.0127,-0.0128,0.014,0.0028,0.2041,,,,,,,,
01:29.7,-0.9863,0.0131,-0.0094,-0.0149,-0.0139,0.014,0.0028,0.2041,,,,,,,,
01:29.7,-0.9869,0.0136,-0.0105,-0.0138,-0.0129,0.014,0.0028,0.2041,,,,,,,,
01:29.7,-0.9863,0.013,-0.0094,-0.0149,-0.0118,0.014,0.0028,0.2041,,,,,,,,
01:29.8,-0.9877,0.0136,-0.0105,-0.016,-0.0118,0.014,0.0028,0.2041,,,,,,,,
01:29.8,-0.9859,0.0122,-0.0094,-0.0149,-0.0107,0.014,0.0028,0.2041,,,,,,,,
01:29.8,-0.986,0.014,-0.0105,-0.0149,-0.0107,0.014,0.0028,0.2041,,,,,,,,
01:29.8,-0.9865,0.0139,-0.0094,-0.0138,-0.0107,0.014,0.0028,0.2041,,,,,,,,
01:29.8,-0.9871,0.0134,-0.0094,-0.0149,-0.0139,0.014,0.0028,0.2041,,,,,,,,
01:29.8,-0.9869,0.0128,-0.0084,-0.0128,-0.0118,0.014,0.0028,0.2041,,,,,,,,
01:29.8,-0.9866,0.013,-0.0094,-0.0138,-0.0118,0.014,0.0028,0.2041,,,,,,,,
01:29.8,-0.9874,0.0133,-0.0094,-0.0149,-0.015,0.014,0.0028,0.2041,,,,,,,,
01:29.8,-0.9864,0.0125,-0.0094,-0.0149,-0.0129,0.014,0.0028,0.2041,,,,,,,,
01:29.8,-0.9861,0.0135,-0.0115,-0.0138,-0.0129,0.0139,0.0028,0.2041,,,,,,,,
01:29.9,-0.9859,0.0138,-0.0094,-0.0138,-0.0118,0.0139,0.0028,0.2041,,,,,,,,
01:29.9,-0.9868,0.014,-0.0084,-0.0128,-0.0118,0.0139,0.0028,0.2041,,,,,,,,
01:29.9,-0.9868,0.0131,-0.0094,-0.0128,-0.0118,0.0139,0.0028,0.2041,,,,,,,,
01:29.9,-0.9871,0.0131,-0.0094,-0.0149,-0.0097,0.0139,0.0028,0.2041,,,,,,,,
01:29.9,-0.9877,0.0128,-0.0105,-0.0138,-0.0118,0.0139,0.0028,0.2041,,,,,,,,
01:29.9,-0.987,0.0122,-0.0084,-0.0149,-0.0118,0.0139,0.0028,0.2041,,,,,,,,
01:29.9,-0.9877,0.0129,-0.0073,-0.0138,-0.0118,0.0139,0.0028,0.2041,,,,,,,,
01:29.9,-0.9865,0.0122,-0.0105,-0.0128,-0.0118,0.0139,0.0028,0.2041,,,,,,,,
01:29.9,-0.987,0.0134,-0.0083,-0.0149,-0.0129,0.0139,0.0028,0.2041,,,,,,,,
01:29.9,-0.9872,0.0129,-0.0084,-0.0138,-0.0118,0.0139,0.0028,0.2041,,,,,,,,
01:30.0,-0.9872,0.0127,-0.0094,-0.0138,-0.0139,0.0139,0.0028,0.2041,,,,,,,,
01:30.0,-0.9884,0.0127,-0.0084,-0.0138,-0.0129,0.0139,0.0028,0.2041,,,,,,,,
01:30.0,-0.9868,0.0115,-0.0084,-0.0128,-0.0118,0.0139,0.0028,0.2041,,,,,,,,
01:30.0,-0.9874,0.0131,-0.0084,-0.0149,-0.0086,0.0139,0.0028,0.2041,,,,,,,,
01:30.0,-0.9868,0.0125,-0.0094,-0.0149,-0.0118,0.0139,0.0028,0.2041,,,,,,,,
01:30.0,-0.9867,0.0131,-0.0094,-0.0138,-0.0107,0.0139,0.0028,0.2041,,,,,,,,
01:30.0,-0.9875,0.0132,-0.0084,-0.0128,-0.0118,0.0138,0.0028,0.2041,,,,,,,,
01:30.0,-0.9871,0.0124,-0.0094,-0.0149,-0.0107,0.0138,0.0028,0.2042,,,,,,,,
01:30.0,-0.9866,0.0128,-0.0094,-0.0149,-0.0118,0.0138,0.0028,0.2042,,,,,,,,
01:30.0,-0.9859,0.0133,-0.0084,-0.0149,-0.0107,0.0138,0.0028,0.2042,,,,,,,,
01:30.1,-0.9874,0.014,-0.0094,-0.016,-0.0107,0.0138,0.0028,0.2042,,,,,,,,
01:30.1,-0.9863,0.0126,-0.0083,-0.017,-0.0129,0.0138,0.0029,0.2042,,,,,,,,
01:30.1,-0.9861,0.0136,-0.0094,-0.0138,-0.0118,0.0138,0.0029,0.2042,,,,,,,,
01:30.1,-0.9869,0.0138,-0.0105,-0.0149,-0.0118,0.0138,0.0028,0.2042,,,,,,,,
01:30.1,-0.9875,0.013,-0.0094,-0.0138,-0.0118,0.0138,0.0028,0.2042,,,,,,,,
01:30.1,-0.987,0.0124,-0.0094,-0.0138,-0.0129,0.0138,0.0028,0.2042,,,,,,,,
01:30.1,-0.9863,0.0129,-0.0083,-0.016,-0.0107,0.0138,0.0029,0.2042,,,,,,,,
01:30.1,-0.9871,0.0136,-0.0083,-0.0149,-0.0129,0.0138,0.0029,0.2042,,,,,,,,
01:30.1,-0.9865,0.0128,-0.0094,-0.0138,-0.0118,0.0138,0.0029,0.2042,,,,,,,,
01:30.1,-0.9863,0.0134,-0.0105,-0.0138,-0.0118,0.0138,0.0029,0.2042,,,,,,,,
01:30.1,-0.9861,0.0136,-0.0084,-0.0138,-0.0118,0.0138,0.0029,0.2042,,,,,,,,
01:30.2,-0.9874,0.0138,-0.0116,-0.0128,-0.0118,0.0138,0.0028,0.2042,,,,,,,,
01:30.2,-0.9878,0.0125,-0.0105,-0.0149,-0.0107,0.0137,0.0028,0.2042,,,,,,,,
01:30.2,-0.9866,0.0121,-0.0094,-0.0128,-0.0118,0.0137,0.0028,0.2042,,,,,,,,
01:30.2,-0.9871,0.0133,-0.0105,-0.0138,-0.0118,0.0137,0.0028,0.2042,,,,,,,,
01:30.2,-0.9865,0.0128,-0.0105,-0.0149,-0.0118,0.0137,0.0028,0.2042,,,,,,,,
01:30.2,-0.9868,0.0134,-0.0094,-0.0149,-0.0118,0.0137,0.0028,0.2042,,,,,,,,
01:30.2,-0.9864,0.0131,-0.0105,-0.0138,-0.0118,0.0137,0.0028,0.2042,,,,,,,,
01:30.2,-0.9873,0.0135,-0.0094,-0.016,-0.0107,0.0137,0.0028,0.2042,,,,,,,,
01:30.2,-0.9872,0.0126,-0.0094,-0.0159,-0.0129,0.0137,0.0028,0.2042,,,,,,,,
01:30.2,-0.9873,0.0127,-0.0105,-0.0149,-0.0129,0.0137,0.0028,0.2042,,,,,,,,
01:30.3,-0.9867,0.0126,-0.0094,-0.0149,-0.0129,0.0137,0.0028,0.2042,,,,,,,,
01:30.3,-0.9872,0.0132,-0.0094,-0.016,-0.0118,0.0137,0.0028,0.2042,,,,,,,,
01:30.3,-0.9876,0.0127,-0.0084,-0.0149,-0.0118,0.0137,0.0028,0.2042,,,,,,,,
01:30.3,-0.9871,0.0123,-0.0084,-0.0138,-0.0118,0.0136,0.0028,0.2042,,,,,,,,
01:30.3,-0.9869,0.0128,-0.0073,-0.0159,-0.0118,0.0136,0.0028,0.2042,,,,,,,,
01:30.3,-0.9866,0.013,-0.0084,-0.0138,-0.0118,0.0136,0.0028,0.2042,,,,,,,,
01:30.3,-0.9882,0.0133,-0.0073,-0.0138,-0.0128,0.0137,0.0029,0.2042,,,,,,,,
01:30.3,-0.9874,0.0117,-0.0094,-0.0149,-0.0118,0.0136,0.0029,0.2042,,,,,,,,
01:30.3,-0.9869,0.0126,-0.0094,-0.0128,-0.0118,0.0137,0.0029,0.2042,,,,,,,,
01:30.3,-0.987,0.013,-0.0105,-0.0149,-0.0118,0.0136,0.0029,0.2042,,,,,,,,
01:30.4,-0.9874,0.0129,-0.0105,-0.0149,-0.0118,0.0136,0.0029,0.2042,,,,,,,,
01:30.4,-0.9871,0.0125,-0.0094,-0.0138,-0.0129,0.0136,0.0029,0.2042,,,,,,,,
01:30.4,-0.9861,0.0128,-0.0105,-0.0149,-0.0107,0.0136,0.0029,0.2042,,,,,,,,
01:30.4,-0.9868,0.0138,-0.0094,-0.0149,-0.0129,0.0136,0.0028,0.2042,,,,,,,,
01:30.4,-0.9879,0.0131,-0.0094,-0.016,-0.0118,0.0136,0.0028,0.2042,,,,,,,,
01:30.4,-0.9875,0.012,-0.0094,-0.0128,-0.0107,0.0136,0.0028,0.2042,,,,,,,,
01:30.4,-0.9868,0.0124,-0.0084,-0.0138,-0.0129,0.0136,0.0028,0.2042,,,,,,,,
01:30.4,-0.9873,0.0131,-0.0105,-0.0138,-0.0118,0.0136,0.0028,0.2042,,,,,,,,
01:30.4,-0.9872,0.0126,-0.0094,-0.0149,-0.0118,0.0136,0.0028,0.2042,,,,,,,,
01:30.4,-0.9863,0.0127,-0.0094,-0.0149,-0.0107,0.0136,0.0028,0.2042,,,,,,,,
01:30.5,-0.9872,0.0136,-0.0105,-0.0149,-0.0129,0.0135,0.0028,0.2042,,,,,,,,
01:30.5,-0.9878,0.0127,-0.0084,-0.0149,-0.0118,0.0135,0.0028,0.2042,,,,,,,,
01:30.5,-0.9874,0.0121,-0.0094,-0.0138,-0.0107,0.0135,0.0029,0.2042,,,,,,,,
01:30.5,-0.9865,0.0125,-0.0084,-0.0138,-0.0118,0.0135,0.0029,0.2042,,,,,,,,
01:30.5,-0.9866,0.0135,-0.0084,-0.0138,-0.0129,0.0135,0.0029,0.2042,,,,,,,,
01:30.5,-0.9872,0.0133,-0.0094,-0.0149,-0.0139,0.0135,0.0029,0.2042,,,,,,,,
01:30.5,-0.9863,0.0127,-0.0094,-0.0149,-0.0118,0.0135,0.0029,0.2042,,,,,,,,
01:30.5,-0.9875,0.0136,-0.0094,-0.0149,-0.0118,0.0135,0.0029,0.2042,,,,,,,,
01:30.5,-0.9873,0.0124,-0.0083,-0.0159,-0.0118,0.0135,0.0029,0.2042,,,,,,,,
01:30.5,-0.9875,0.0126,-0.0083,-0.016,-0.0107,0.0134,0.0029,0.2042,,,,,,,,
01:30.6,-0.9867,0.0124,-0.0094,-0.0149,-0.0107,0.0134,0.0029,0.2042,,,,,,,,
01:30.6,-0.9871,0.0132,-0.0084,-0.0127,-0.0139,0.0134,0.0029,0.2042,,,,,,,,
01:30.6,-0.9868,0.0128,-0.0094,-0.0138,-0.0129,0.0134,0.0029,0.2042,,,,,,,,
01:30.6,-0.9869,0.0131,-0.0094,-0.0149,-0.0129,0.0134,0.0029,0.2042,,,,,,,,
01:30.6,-0.9866,0.013,-0.0126,-0.016,-0.0107,0.0134,0.0029,0.2042,,,,,,,,
01:30.6,-0.9869,0.0133,-0.0084,-0.0138,-0.0107,0.0134,0.0029,0.2042,,,,,,,,
01:30.6,-0.9875,0.013,-0.0083,-0.0159,-0.0129,0.0134,0.0029,0.2042,,,,,,,,
01:30.6,-0.9873,0.0124,-0.0105,-0.0128,-0.0118,0.0134,0.0029,0.2042,,,,,,,,
01:30.6,-0.9875,0.0126,-0.0094,-0.0138,-0.0129,0.0134,0.0029,0.2042,,,,,,,,
01:30.6,-0.986,0.0124,-0.0094,-0.016,-0.0118,0.0134,0.0029,0.2042,,,,,,,,
01:30.7,-0.987,0.0139,-0.0094,-0.0149,-0.0107,0.0133,0.0029,0.2042,,,,,,,,
01:30.7,-0.9877,0.0129,-0.0094,-0.0149,-0.0118,0.0133,0.0029,0.2042,,,,,,,,
01:30.7,-0.9876,0.0122,-0.0094,-0.0128,-0.0129,0.0133,0.0029,0.2042,,,,,,,,
01:30.7,-0.9881,0.0123,-0.0084,-0.0138,-0.0118,0.0134,0.0029,0.2042,,,,,,,,
01:30.7,-0.9882,0.0118,-0.0084,-0.0138,-0.0097,0.0133,0.0029,0.2042,,,,,,,,
01:30.7,-0.9868,0.0117,-0.0094,-0.0149,-0.0139,0.0133,0.0029,0.2042,,,,,,,,
01:30.7,-0.9869,0.0131,-0.0105,-0.0128,-0.0118,0.0133,0.0029,0.2042,,,,,,,,
01:30.7,-0.9872,0.013,-0.0105,-0.0128,-0.0129,0.0133,0.0029,0.2042,,,,,,,,
01:30.7,-0.9873,0.0127,-0.0084,-0.0138,-0.0129,0.0133,0.0029,0.2042,,,,,,,,
01:30.7,-0.9878,0.0126,-0.0094,-0.0149,-0.0118,0.0133,0.0029,0.2042,,,,,,,,
01:30.8,-0.9878,0.0121,-0.0084,-0.0138,-0.0129,0.0133,0.0029,0.2042,,,,,,,,
01:30.8,-0.9871,0.0121,-0.0073,-0.0149,-0.0128,0.0133,0.0029,0.2042,,,,,,,,
01:30.8,-0.9867,0.0128,-0.0105,-0.016,-0.0118,0.0133,0.0029,0.2042,,,,,,,,
01:30.8,-0.987,0.0132,-0.0105,-0.0128,-0.0118,0.0133,0.0029,0.2042,,,,,,,,
01:30.8,-0.9877,0.0129,-0.0094,-0.0138,-0.0118,0.0133,0.0029,0.2042,,,,,,,,
01:30.8,-0.9866,0.0122,-0.0083,-0.0138,-0.0139,0.0133,0.0029,0.2042,,,,,,,,
01:30.8,-0.9862,0.0133,-0.0094,-0.0149,-0.0129,0.0133,0.0029,0.2042,,,,,,,,
01:30.8,-0.9877,0.0137,-0.0094,-0.0138,-0.0118,0.0133,0.0029,0.2042,,,,,,,,
01:30.8,-0.9877,0.0123,-0.0073,-0.0159,-0.0118,0.0133,0.0029,0.2042,,,,,,,,
01:30.8,-0.9868,0.0122,-0.0094,-0.0138,-0.0118,0.0133,0.0029,0.2042,,,,,,,,
01:30.9,-0.9867,0.0131,-0.0084,-0.0138,-0.0118,0.0133,0.003,0.2042,,,,,,,,
01:30.9,-0.9872,0.0132,-0.0084,-0.0138,-0.0129,0.0133,0.003,0.2042,,,,,,,,
01:30.9,-0.9867,0.0127,-0.0084,-0.0149,-0.0118,0.0132,0.003,0.2042,,,,,,,,
01:30.9,-0.9864,0.0132,-0.0094,-0.0138,-0.0129,0.0132,0.003,0.2042,,,,,,,,
01:30.9,-0.9864,0.0135,-0.0083,-0.0159,-0.0118,0.0132,0.003,0.2042,,,,,,,,
01:30.9,-0.9877,0.0135,-0.0094,-0.0149,-0.0107,0.0132,0.003,0.2042,,,,,,,,
01:30.9,-0.9875,0.0122,-0.0105,-0.0128,-0.0139,0.0132,0.003,0.2042,,,,,,,,
01:30.9,-0.9864,0.0124,-0.0094,-0.0128,-0.0107,0.0132,0.003,0.2042,,,,,,,,
01:30.9,-0.9873,0.0135,-0.0094,-0.0138,-0.0139,0.0132,0.003,0.2042,,,,,,,,
01:30.9,-0.987,0.0126,-0.0105,-0.0128,-0.0107,0.0132,0.003,0.2042,,,,,,,,
01:31.0,-0.9873,0.0129,-0.0083,-0.0159,-0.0118,0.0132,0.003,0.2042,,,,,,,,
01:31.0,-0.9871,0.0126,-0.0084,-0.0149,-0.0118,0.0132,0.003,0.2042,,,,,,,,
01:31.0,-0.9875,0.0128,-0.0094,-0.0128,-0.0118,0.0132,0.003,0.2042,,,,,,,,
01:31.0,-0.9871,0.0124,-0.0094,-0.0149,-0.0118,0.0132,0.003,0.2042,,,,,,,,
01:31.0,-0.9863,0.0128,-0.0083,-0.0159,-0.0129,0.0132,0.003,0.2042,,,,,,,,
01:31.0,-0.9873,0.0136,-0.0094,-0.0149,-0.0129,0.0132,0.003,0.2042,,,,,,,,
01:31.0,-0.987,0.0126,-0.0083,-0.0159,-0.0118,0.0132,0.003,0.2042,,,,,,,,
01:31.0,-0.9874,0.0129,-0.0094,-0.0149,-0.0118,0.0131,0.003,0.2042,,,,,,,,
01:31.0,-0.9883,0.0126,-0.0105,-0.0149,-0.0118,0.0131,0.003,0.2042,,,,,,,,
01:31.0,-0.9872,0.0116,-0.0084,-0.0149,-0.0118,0.0131,0.003,0.2042,,,,,,,,
01:31.1,-0.9879,0.0127,-0.0105,-0.0149,-0.0118,0.0131,0.003,0.2042,,,,,,,,
01:31.1,-0.9874,0.012,-0.0094,-0.0138,-0.0118,0.0131,0.003,0.2042,,,,,,,,
01:31.1,-0.9874,0.0125,-0.0094,-0.0138,-0.0118,0.0131,0.003,0.2042,,,,,,,,
01:31.1,-0.9864,0.0125,-0.0094,-0.0128,-0.0118,0.0131,0.003,0.2042,,,,,,,,
01:31.1,-0.9874,0.0135,-0.0105,-0.0128,-0.0129,0.0131,0.003,0.2042,,,,,,,,
01:31.1,-0.9866,0.0125,-0.0084,-0.0138,-0.0118,0.0131,0.003,0.2042,,,,,,,,
01:31.1,-0.9871,0.0133,-0.0094,-0.0149,-0.0107,0.0131,0.003,0.2042,,,,,,,,
01:31.1,-0.9876,0.0128,-0.0094,-0.0149,-0.0129,0.0131,0.003,0.2042,,,,,,,,
01:31.1,-0.987,0.0123,-0.0094,-0.0149,-0.0118,0.0131,0.003,0.2042,,,,,,,,
01:31.1,-0.9875,0.0129,-0.0094,-0.0149,-0.0118,0.0131,0.003,0.2042,,,,,,,,
01:31.2,-0.9864,0.0124,-0.0094,-0.0128,-0.0107,0.0131,0.003,0.2042,,,,,,,,
01:31.2,-0.9868,0.0135,-0.0105,-0.0138,-0.0118,0.013,0.003,0.2042,,,,,,,,
01:31.2,-0.9885,0.0131,-0.0084,-0.0149,-0.0118,0.013,0.003,0.2042,,,,,,,,
01:31.2,-0.987,0.0114,-0.0094,-0.0138,-0.0129,0.013,0.003,0.2042,,,,,,,,
01:31.2,-0.9862,0.0129,-0.0094,-0.0138,-0.0118,0.013,0.003,0.2042,,,,,,,,
01:31.2,-0.9886,0.0137,-0.0094,-0.0149,-0.0118,0.013,0.003,0.2042,,,,,,,,
01:31.2,-0.9864,0.0113,-0.0094,-0.0149,-0.0129,0.013,0.003,0.2042,,,,,,,,
01:31.2,-0.9856,0.0135,-0.0094,-0.016,-0.0107,0.013,0.003,0.2042,,,,,,,,
01:31.2,-0.9878,0.0143,-0.0083,-0.0149,-0.0129,0.013,0.003,0.2042,,,,,,,,
01:31.2,-0.9865,0.0121,-0.0094,-0.0149,-0.0129,0.013,0.003,0.2042,,,,,,,,
01:31.3,-0.9872,0.0134,-0.0083,-0.0159,-0.0118,0.013,0.003,0.2042,,,,,,,,
01:31.3,-0.9858,0.0127,-0.0084,-0.0149,-0.0107,0.0129,0.003,0.2042,,,,,,,,
01:31.3,-0.9875,0.0141,-0.0084,-0.0138,-0.0118,0.013,0.003,0.2042,,,,,,,,
01:31.3,-0.9874,0.0124,-0.0094,-0.0149,-0.0129,0.0129,0.003,0.2042,,,,,,,,
01:31.3,-0.986,0.0126,-0.0094,-0.0149,-0.0129,0.0129,0.003,0.2042,,,,,,,,
01:31.3,-0.9872,0.0139,-0.0084,-0.0138,-0.0118,0.0129,0.003,0.2042,,,,,,,,
01:31.3,-0.9867,0.0127,-0.0105,-0.0138,-0.0129,0.0129,0.003,0.2042,,,,,,,,
01:31.3,-0.987,0.0132,-0.0105,-0.016,-0.0118,0.0129,0.003,0.2042,,,,,,,,
01:31.3,-0.9873,0.0129,-0.0084,-0.0149,-0.0107,0.0129,0.003,0.2042,,,,,,,,
01:31.3,-0.9879,0.0126,-0.0105,-0.0138,-0.0118,0.0129,0.003,0.2042,,,,,,,,
01:31.4,-0.9857,0.012,-0.0094,-0.0149,-0.0118,0.0129,0.003,0.2042,,,,,,,,
01:31.4,-0.9872,0.0142,-0.0094,-0.0149,-0.0118,0.0129,0.003,0.2042,,,,,,,,
01:31.4,-0.9875,0.0127,-0.0084,-0.0149,-0.0118,0.0129,0.003,0.2042,,,,,,,,
01:31.4,-0.9867,0.0124,-0.0094,-0.0149,-0.0129,0.0129,0.003,0.2042,,,,,,,,
01:31.4,-0.9867,0.0132,-0.0105,-0.016,-0.0107,0.0129,0.003,0.2042,,,,,,,,
01:31.4,-0.9872,0.0132,-0.0084,-0.0128,-0.0118,0.0129,0.003,0.2042,,,,,,,,
01:31.4,-0.9868,0.0127,-0.0084,-0.0138,-0.0107,0.0129,0.003,0.2042,,,,,,,,
01:31.4,-0.9867,0.0131,-0.0094,-0.0149,-0.0118,0.0128,0.003,0.2042,,,,,,,,
01:31.4,-0.9863,0.0132,-0.0105,-0.0138,-0.0118,0.0128,0.003,0.2042,,,,,,,,
01:31.4,-0.9871,0.0136,-0.0105,-0.0128,-0.0129,0.0128,0.003,0.2042,,,,,,,,
01:31.5,-0.987,0.0128,-0.0105,-0.0128,-0.0107,0.0128,0.003,0.2042,,,,,,,,
01:31.5,-0.9867,0.013,-0.0094,-0.0159,-0.0129,0.0128,0.003,0.2042,,,,,,,,
01:31.5,-0.9863,0.0132,-0.0073,-0.0138,-0.0128,0.0128,0.003,0.2042,,,,,,,,
01:31.5,-0.9875,0.0136,-0.0084,-0.0138,-0.0118,0.0128,0.003,0.2042,,,,,,,,
01:31.5,-0.9878,0.0124,-0.0094,-0.016,-0.0118,0.0128,0.003,0.2042,,,,,,,,
01:31.5,-0.9866,0.0121,-0.0105,-0.0149,-0.0139,0.0128,0.003,0.2042,,,,,,,,
01:31.5,-0.9863,0.0133,-0.0084,-0.0128,-0.0118,0.0128,0.003,0.2042,,,,,,,,
01:31.5,-0.9867,0.0136,-0.0094,-0.0149,-0.0118,0.0128,0.003,0.2042,,,,,,,,
01:31.5,-0.9871,0.0132,-0.0094,-0.0138,-0.0118,0.0128,0.003,0.2042,,,,,,,,
01:31.5,-0.9871,0.0128,-0.0094,-0.0138,-0.0118,0.0128,0.003,0.2042,,,,,,,,
01:31.6,-0.987,0.0129,-0.0094,-0.016,-0.0118,0.0127,0.003,0.2042,,,,,,,,
01:31.6,-0.987,0.0129,-0.0084,-0.0128,-0.0107,0.0127,0.003,0.2042,,,,,,,,
01:31.6,-0.9867,0.0129,-0.0094,-0.0149,-0.0118,0.0127,0.003,0.2042,,,,,,,,
01:31.6,-0.987,0.0132,-0.0084,-0.0138,-0.0118,0.0127,0.003,0.2042,,,,,,,,
01:31.6,-0.9876,0.0129,-0.0094,-0.0149,-0.0118,0.0127,0.003,0.2041,,,,,,,,
01:31.6,-0.987,0.0123,-0.0084,-0.0138,-0.0118,0.0127,0.003,0.2041,,,,,,,,
01:31.6,-0.9862,0.013,-0.0084,-0.0138,-0.0118,0.0127,0.003,0.2041,,,,,,,,
01:31.6,-0.9875,0.0125,-0.0084,-0.0149,-0.0118,0.0127,0.003,0.2042,,,,,,,,
01:31.6,-0.9884,0.0125,-0.0094,-0.0138,-0.0129,0.0127,0.003,0.2041,,,,,,,,
01:31.6,-0.9873,0.0115,-0.0094,-0.0138,-0.0107,0.0127,0.003,0.2042,,,,,,,,
01:31.6,-0.9867,0.0127,-0.0094,-0.0149,-0.0097,0.0127,0.003,0.2042,,,,,,,,
01:31.7,-0.9864,0.0133,-0.0116,-0.0128,-0.0118,0.0127,0.003,0.2042,,,,,,,,
01:31.7,-0.9868,0.0135,-0.0094,-0.0149,-0.0118,0.0127,0.003,0.2042,,,,,,,,
01:31.7,-0.9863,0.0131,-0.0084,-0.0149,-0.0118,0.0127,0.003,0.2042,,,,,,,,
01:31.7,-0.9868,0.0136,-0.0094,-0.0149,-0.0118,0.0127,0.003,0.2042,,,,,,,,
01:31.7,-0.9865,0.0131,-0.0105,-0.0149,-0.0118,0.0127,0.003,0.2042,,,,,,,,
01:31.7,-0.9875,0.0134,-0.0084,-0.0138,-0.0107,0.0127,0.003,0.2042,,,,,,,,
01:31.7,-0.9863,0.0124,-0.0105,-0.0138,-0.0118,0.0126,0.003,0.2042,,,,,,,,
01:31.7,-0.9861,0.0136,-0.0094,-0.0149,-0.0129,0.0126,0.003,0.2042,,,,,,,,
01:31.7,-0.9869,0.0138,-0.0094,-0.0128,-0.0118,0.0126,0.003,0.2042,,,,,,,,
01:31.7,-0.9873,0.013,-0.0105,-0.0149,-0.0118,0.0126,0.003,0.2042,,,,,,,,
01:31.8,-0.9871,0.0127,-0.0116,-0.0138,-0.0118,0.0126,0.003,0.2042,,,,,,,,
01:31.8,-0.9873,0.0128,-0.0094,-0.0138,-0.0129,0.0126,0.003,0.2042,,,,,,,,
01:31.8,-0.9872,0.0126,-0.0105,-0.0128,-0.0129,0.0126,0.0029,0.2042,,,,,,,,
01:31.8,-0.9871,0.0127,-0.0094,-0.0149,-0.0107,0.0126,0.0029,0.2042,,,,,,,,
01:31.8,-0.9879,0.0128,-0.0094,-0.0138,-0.0118,0.0126,0.0029,0.2042,,,,,,,,
01:31.8,-0.9861,0.012,-0.0094,-0.016,-0.0118,0.0126,0.0029,0.2042,,,,,,,,
01:31.8,-0.9867,0.0132,-0.0094,-0.0149,-0.0118,0.0126,0.0029,0.2042,,,,,,,,
01:31.8,-0.9875,0.0132,-0.0084,-0.0138,-0.0118,0.0126,0.0029,0.2042,,,,,,,,
01:31.8,-0.9872,0.0125,-0.0094,-0.0138,-0.0118,0.0126,0.0029,0.2042,,,,,,,,
01:31.8,-0.9869,0.013,-0.0094,-0.0138,-0.0129,0.0126,0.0029,0.2042,,,,,,,,
01:31.9,-0.9863,0.013,-0.0094,-0.016,-0.0118,0.0126,0.0029,0.2042,,,,,,,,
01:31.9,-0.9866,0.0136,-0.0105,-0.0149,-0.0129,0.0126,0.0029,0.2042,,,,,,,,
01:31.9,-0.9871,0.0133,-0.0084,-0.0138,-0.0129,0.0126,0.0029,0.2042,,,,,,,,
01:31.9,-0.987,0.0128,-0.0115,-0.0149,-0.0118,0.0126,0.0029,0.2041,,,,,,,,
01:31.9,-0.9872,0.013,-0.0094,-0.0138,-0.0129,0.0126,0.0029,0.2041,,,,,,,,
01:31.9,-0.9888,0.0127,-0.0094,-0.0149,-0.0118,0.0126,0.0029,0.2042,,,,,,,,
01:31.9,-0.9873,0.0111,-0.0094,-0.0149,-0.0118,0.0125,0.0029,0.2042,,,,,,,,
01:31.9,-0.9869,0.0127,-0.0084,-0.0138,-0.0118,0.0125,0.0029,0.2042,,,,,,,,
01:31.9,-0.9875,0.013,-0.0105,-0.0128,-0.0118,0.0125,0.0029,0.2042,,,,,,,,
01:31.9,-0.9868,0.0124,-0.0094,-0.016,-0.0118,0.0125,0.0029,0.2042,,,,,,,,
01:32.0,-0.9859,0.0131,-0.0073,-0.0149,-0.0118,0.0125,0.0029,0.2042,,,,,,,,
01:32.0,-0.9875,0.0124,-0.0094,-0.0149,-0.0129,0.0125,0.0029,0.2042,,,,,,,,
01:32.0,-0.9872,0.0124,-0.0094,-0.0128,-0.0129,0.0125,0.0029,0.2042,,,,,,,,
01:32.0,-0.9874,0.0127,-0.0094,-0.0149,-0.0118,0.0125,0.0029,0.2042,,,,,,,,
01:32.0,-0.9869,0.0125,-0.0094,-0.0138,-0.0118,0.0125,0.003,0.2042,,,,,,,,
01:32.0,-0.9871,0.0131,-0.0073,-0.0138,-0.0128,0.0125,0.003,0.2042,,,,,,,,
01:32.0,-0.9866,0.0128,-0.0094,-0.0138,-0.0129,0.0125,0.003,0.2042,,,,,,,,
01:32.0,-0.9867,0.0133,-0.0084,-0.0117,-0.0107,0.0125,0.003,0.2042,,,,,,,,
01:32.0,-0.9873,0.0132,-0.0115,-0.0149,-0.0118,0.0125,0.003,0.2042,,,,,,,,
01:32.0,-0.9865,0.0126,-0.0094,-0.0138,-0.0107,0.0125,0.003,0.2042,,,,,,,,
01:32.1,-0.9872,0.0134,-0.0084,-0.0149,-0.0118,0.0125,0.003,0.2042,,,,,,,,
01:32.1,-0.9877,0.0128,-0.0105,-0.0138,-0.0118,0.0125,0.003,0.2042,,,,,,,,
01:32.1,-0.9865,0.0122,-0.0083,-0.0149,-0.0139,0.0125,0.003,0.2042,,,,,,,,
01:32.1,-0.9861,0.0135,-0.0084,-0.0149,-0.0118,0.0125,0.003,0.2042,,,,,,,,
01:32.1,-0.9872,0.0139,-0.0084,-0.0138,-0.0107,0.0125,0.003,0.2042,,,,,,,,
01:32.1,-0.9873,0.0127,-0.0094,-0.0128,-0.0129,0.0125,0.003,0.2042,,,,,,,,
01:32.1,-0.9863,0.0126,-0.0105,-0.016,-0.0118,0.0124,0.003,0.2042,,,,,,,,
01:32.1,-0.9868,0.0136,-0.0094,-0.016,-0.0107,0.0124,0.003,0.2042,,,,,,,,
01:32.1,-0.987,0.0131,-0.0084,-0.0117,-0.0118,0.0124,0.003,0.2042,,,,,,,,
01:32.1,-0.9883,0.0129,-0.0094,-0.0138,-0.0129,0.0124,0.003,0.2042,,,,,,,,
01:32.2,-0.9867,0.0116,-0.0094,-0.0149,-0.0118,0.0124,0.003,0.2042,,,,,,,,
01:32.2,-0.9866,0.0132,-0.0094,-0.0159,-0.0129,0.0124,0.003,0.2042,,,,,,,,
01:32.2,-0.9861,0.0134,-0.0094,-0.0159,-0.0139,0.0124,0.003,0.2041,,,,,,,,
01:32.2,-0.9868,0.0138,-0.0094,-0.0138,-0.0118,0.0124,0.003,0.2042,,,,,,,,
01:32.2,-0.9873,0.0131,-0.0083,-0.0159,-0.0118,0.0124,0.003,0.2042,,,,,,,,
01:32.2,-0.9869,0.0126,-0.0084,-0.0149,-0.0118,0.0124,0.003,0.2042,,,,,,,,
01:32.2,-0.9872,0.0131,-0.0115,-0.0149,-0.0139,0.0124,0.003,0.2041,,,,,,,,
01:32.2,-0.9867,0.0127,-0.0094,-0.0149,-0.0118,0.0124,0.003,0.2042,,,,,,,,
01:32.2,-0.9869,0.0131,-0.0094,-0.0138,-0.0118,0.0124,0.003,0.2042,,,,,,,,
01:32.2,-0.9872,0.0131,-0.0094,-0.0138,-0.0118,0.0124,0.003,0.2042,,,,,,,,
01:32.3,-0.9871,0.0128,-0.0094,-0.0138,-0.0139,0.0124,0.003,0.2041,,,,,,,,
01:32.3,-0.9872,0.0128,-0.0073,-0.0159,-0.0107,0.0124,0.003,0.2041,,,,,,,,
01:32.3,-0.988,0.0127,-0.0094,-0.0138,-0.0118,0.0123,0.003,0.2041,,,,,,,,
01:32.3,-0.9871,0.0119,-0.0084,-0.0138,-0.0118,0.0123,0.003,0.2041,,,,,,,,
01:32.3,-0.9862,0.0128,-0.0084,-0.0138,-0.0129,0.0123,0.003,0.2041,,,,,,,,
01:32.3,-0.9875,0.0137,-0.0094,-0.0138,-0.0129,0.0123,0.003,0.2041,,,,,,,,
01:32.3,-0.9867,0.0124,-0.0084,-0.0138,-0.0129,0.0123,0.003,0.2041,,,,,,,,
01:32.3,-0.987,0.0132,-0.0083,-0.0149,-0.0129,0.0123,0.003,0.2041,,,,,,,,
01:32.3,-0.987,0.013,-0.0084,-0.0149,-0.0107,0.0123,0.003,0.2041,,,,,,,,
01:32.3,-0.9864,0.0129,-0.0094,-0.0138,-0.0107,0.0123,0.003,0.2041,,,,,,,,
01:32.4,-0.9872,0.0135,-0.0084,-0.0138,-0.0107,0.0123,0.003,0.2041,,,,,,,,
01:32.4,-0.9867,0.0128,-0.0084,-0.0149,-0.0118,0.0123,0.003,0.2041,,,,,,,,
01:32.4,-0.9872,0.0132,-0.0084,-0.0149,-0.0118,0.0123,0.003,0.2041,,,,,,,,
01:32.4,-0.9874,0.0127,-0.0084,-0.0138,-0.0129,0.0123,0.003,0.2041,,,,,,,,
01:32.4,-0.9874,0.0125,-0.0094,-0.0138,-0.0118,0.0123,0.003,0.2041,,,,,,,,
01:32.4,-0.9861,0.0125,-0.0084,-0.0138,-0.0118,0.0123,0.003,0.2041,,,,,,,,
01:32.4,-0.9871,0.0138,-0.0083,-0.0149,-0.0129,0.0123,0.003,0.2041,,,,,,,,
01:32.4,-0.9884,0.0129,-0.0094,-0.0149,-0.0118,0.0123,0.003,0.2041,,,,,,,,
01:32.4,-0.9873,0.0115,-0.0094,-0.0149,-0.0129,0.0123,0.003,0.2041,,,,,,,,
01:32.4,-0.9876,0.0126,-0.0105,-0.0149,-0.0118,0.0123,0.003,0.2041,,,,,,,,
01:32.5,-0.9878,0.0123,-0.0084,-0.0128,-0.0118,0.0123,0.003,0.2041,,,,,,,,
01:32.5,-0.9866,0.0121,-0.0083,-0.0159,-0.0129,0.0122,0.003,0.2041,,,,,,,,
01:32.5,-0.9871,0.0133,-0.0084,-0.0138,-0.0129,0.0122,0.003,0.2041,,,,,,,,
01:32.5,-0.9879,0.0128,-0.0094,-0.0149,-0.0129,0.0122,0.003,0.2041,,,,,,,,
01:32.5,-0.9869,0.012,-0.0094,-0.0138,-0.0129,0.0122,0.0031,0.2041,,,,,,,,
01:32.5,-0.9874,0.013,-0.0084,-0.0149,-0.0118,0.0122,0.0031,0.2041,,,,,,,,
01:32.5,-0.9877,0.0125,-0.0083,-0.0149,-0.0129,0.0122,0.0031,0.2041,,,,,,,,
01:32.5,-0.9865,0.0122,-0.0094,-0.0159,-0.0129,0.0122,0.0031,0.2041,,,,,,,,
01:32.5,-0.9863,0.0135,-0.0094,-0.0149,-0.0118,0.0122,0.0031,0.2041,,,,,,,,
01:32.5,-0.9873,0.0136,-0.0094,-0.0138,-0.0118,0.0122,0.0031,0.2041,,,,,,,,
01:32.6,-0.9866,0.0127,-0.0105,-0.0149,-0.0118,0.0122,0.0031,0.2041,,,,,,,,
01:32.6,-0.9873,0.0133,-0.0083,-0.0149,-0.0129,0.0122,0.0031,0.2041,,,,,,,,
01:32.6,-0.9867,0.0126,-0.0094,-0.0149,-0.0118,0.0122,0.0031,0.2041,,,,,,,,
01:32.6,-0.9868,0.0132,-0.0084,-0.0149,-0.0118,0.0122,0.0031,0.2041,,,,,,,,
01:32.6,-0.9874,0.0131,-0.0084,-0.0117,-0.0139,0.0122,0.0031,0.2041,,,,,,,,
01:32.6,-0.9865,0.0126,-0.0094,-0.0149,-0.0118,0.0122,0.0031,0.2041,,,,,,,,
01:32.6,-0.9865,0.0135,-0.0094,-0.0149,-0.0107,0.0122,0.0031,0.2041,,,,,,,,
01:32.6,-0.9867,0.0134,-0.0094,-0.0138,-0.0118,0.0122,0.0031,0.2041,,,,,,,,
01:32.6,-0.9877,0.0132,-0.0073,-0.0149,-0.0118,0.0121,0.0031,0.2041,,,,,,,,
01:32.6,-0.987,0.0122,-0.0094,-0.0149,-0.0107,0.0121,0.0031,0.2041,,,,,,,,
01:32.7,-0.9868,0.013,-0.0105,-0.0138,-0.0129,0.0121,0.0031,0.2041,,,,,,,,
01:32.7,-0.9875,0.0131,-0.0094,-0.0149,-0.0129,0.0121,0.0031,0.2041,,,,,,,,
01:32.7,-0.9865,0.0125,-0.0105,-0.016,-0.0118,0.0121,0.0031,0.2041,,,,,,,,
01:32.7,-0.9868,0.0134,-0.0094,-0.0149,-0.0118,0.0121,0.0031,0.2041,,,,,,,,
01:32.7,-0.9872,0.0131,-0.0115,-0.0149,-0.0129,0.0121,0.0031,0.2041,,,,,,,,
01:32.7,-0.9863,0.0127,-0.0094,-0.0149,-0.0129,0.0121,0.0031,0.2041,,,,,,,,
01:32.7,-0.9875,0.0136,-0.0094,-0.0128,-0.0118,0.0121,0.0031,0.2041,,,,,,,,
01:32.7,-0.9875,0.0124,-0.0105,-0.0138,-0.0139,0.0121,0.003,0.2041,,,,,,,,
01:32.7,-0.9879,0.0125,-0.0084,-0.0127,-0.0128,0.0121,0.003,0.2041,,,,,,,,
01:32.7,-0.9877,0.012,-0.0094,-0.0149,-0.0107,0.0121,0.003,0.2041,,,,,,,,
01:32.8,-0.9859,0.0122,-0.0084,-0.0138,-0.0129,0.0121,0.003,0.2041,,,,,,,,
01:32.8,-0.9867,0.014,-0.0094,-0.0149,-0.0129,0.0121,0.003,0.2041,,,,,,,,
01:32.8,-0.9873,0.0132,-0.0084,-0.016,-0.0097,0.012,0.003,0.2041,,,,,,,,
01:32.8,-0.9877,0.0126,-0.0084,-0.0138,-0.0118,0.012,0.0031,0.2041,,,,,,,,
01:32.8,-0.9871,0.0123,-0.0084,-0.0149,-0.0118,0.012,0.0031,0.2041,,,,,,,,
01:32.8,-0.9874,0.0128,-0.0094,-0.0149,-0.0129,0.012,0.0031,0.2041,,,,,,,,
01:32.8,-0.988,0.0125,-0.0094,-0.017,-0.0118,0.012,0.0031,0.2041,,,,,,,,
01:32.8,-0.9869,0.0119,-0.0105,-0.016,-0.0129,0.012,0.003,0.2041,,,,,,,,
01:32.8,-0.9871,0.013,-0.0073,-0.0138,-0.0118,0.012,0.0031,0.2041,,,,,,,,
01:32.8,-0.9867,0.0128,-0.0094,-0.0149,-0.0107,0.012,0.0031,0.2041,,,,,,,,
01:32.9,-0.9875,0.0132,-0.0094,-0.016,-0.0107,0.012,0.0031,0.2041,,,,,,,,
01:32.9,-0.9875,0.0124,-0.0084,-0.0138,-0.0118,0.012,0.0031,0.2041,,,,,,,,
01:32.9,-0.9862,0.0125,-0.0094,-0.0138,-0.0118,0.012,0.0031,0.2041,,,,,,,,
01:32.9,-0.987,0.0138,-0.0094,-0.0138,-0.0107,0.012,0.0031,0.2041,,,,,,,,
01:32.9,-0.9876,0.013,-0.0105,-0.0138,-0.0118,0.012,0.0031,0.2041,,,,,,,,
01:32.9,-0.9872,0.0123,-0.0084,-0.0149,-0.0118,0.012,0.0031,0.2041,,,,,,,,
01:32.9,-0.9866,0.0128,-0.0083,-0.0149,-0.0129,0.0119,0.0031,0.2041,,,,,,,,
01:32.9,-0.9876,0.0134,-0.0084,-0.0127,-0.0128,0.0119,0.0031,0.2041,,,,,,,,
01:32.9,-0.9876,0.0123,-0.0094,-0.0138,-0.0129,0.0119,0.0031,0.2041,,,,,,,,
01:32.9,-0.9879,0.0123,-0.0094,-0.0149,-0.0129,0.0119,0.0031,0.2041,,,,,,,,
01:33.0,-0.987,0.012,-0.0094,-0.0138,-0.0118,0.0119,0.0031,0.2041,,,,,,,,
01:33.0,-0.9868,0.0129,-0.0094,-0.0149,-0.0129,0.0119,0.0031,0.2041,,,,,,,,
01:33.0,-0.9863,0.0131,-0.0094,-0.0138,-0.0129,0.0119,0.0031,0.2041,,,,,,,,
01:33.0,-0.9869,0.0136,-0.0105,-0.0149,-0.0129,0.0119,0.0031,0.2041,,,,,,,,
01:33.0,-0.9869,0.0131,-0.0084,-0.0138,-0.0118,0.0119,0.0031,0.2041,,,,,,,,
01:33.0,-0.9866,0.013,-0.0084,-0.0149,-0.0107,0.0119,0.0031,0.2041,,,,,,,,
01:33.0,-0.9873,0.0133,-0.0094,-0.0138,-0.0107,0.0119,0.0031,0.2041,,,,,,,,
01:33.0,-0.9872,0.0127,-0.0094,-0.0149,-0.0107,0.0119,0.0031,0.2041,,,,,,,,
01:33.0,-0.9875,0.0127,-0.0084,-0.0138,-0.0118,0.0119,0.0031,0.2041,,,,,,,,
01:33.0,-0.9868,0.0124,-0.0083,-0.0149,-0.0139,0.0119,0.0031,0.2041,,,,,,,,
01:33.1,-0.9857,0.0131,-0.0094,-0.016,-0.0118,0.0119,0.0031,0.2041,,,,,,,,
01:33.1,-0.9875,0.0142,-0.0083,-0.0149,-0.0129,0.0119,0.0031,0.2041,,,,,,,,
01:33.1,-0.9874,0.0124,-0.0094,-0.0138,-0.0129,0.0119,0.0031,0.2041,,,,,,,,
01:33.1,-0.9866,0.0125,-0.0105,-0.016,-0.0118,0.0118,0.0031,0.2041,,,,,,,,
01:33.1,-0.9858,0.0133,-0.0105,-0.016,-0.0107,0.0118,0.0031,0.2041,,,,,,,,
01:33.1,-0.9864,0.0141,-0.0094,-0.0149,-0.0118,0.0118,0.0031,0.2041,,,,,,,,
01:33.1,-0.9869,0.0135,-0.0073,-0.0138,-0.0118,0.0118,0.0031,0.2041,,,,,,,,
01:33.1,-0.9873,0.013,-0.0094,-0.0149,-0.0129,0.0118,0.0031,0.2041,,,,,,,,
01:33.1,-0.9871,0.0126,-0.0105,-0.0138,-0.0129,0.0118,0.0031,0.2041,,,,,,,,
01:33.1,-0.9877,0.0128,-0.0083,-0.0149,-0.0129,0.0118,0.0031,0.2041,,,,,,,,
01:33.1,-0.9881,0.0122,-0.0084,-0.0128,-0.0118,0.0118,0.0031,0.2041,,,,,,,,
01:33.2,-0.9871,0.0118,-0.0094,-0.0149,-0.0107,0.0118,0.0031,0.2041,,,,,,,,
01:33.2,-0.987,0.0128,-0.0094,-0.0149,-0.0129,0.0118,0.0031,0.2041,,,,,,,,
01:33.2,-0.9869,0.0129,-0.0094,-0.0138,-0.0118,0.0118,0.0031,0.2041,,,,,,,,
01:33.2,-0.9864,0.013,-0.0094,-0.016,-0.0118,0.0118,0.0031,0.2041,,,,,,,,
01:33.2,-0.987,0.0136,-0.0094,-0.0149,-0.0118,0.0118,0.0031,0.2041,,,,,,,,
01:33.2,-0.9871,0.0129,-0.0094,-0.0138,-0.0118,0.0118,0.0031,0.2041,,,,,,,,
01:33.2,-0.9877,0.0128,-0.0094,-0.0138,-0.0118,0.0118,0.0031,0.2041,,,,,,,,
01:33.2,-0.9875,0.0122,-0.0084,-0.0138,-0.0118,0.0118,0.0031,0.2041,,,,,,,,
01:33.2,-0.9869,0.0124,-0.0084,-0.0138,-0.0107,0.0118,0.0031,0.2041,,,,,,,,
01:33.2,-0.9872,0.013,-0.0094,-0.0138,-0.0118,0.0118,0.0031,0.2041,,,,,,,,
01:33.3,-0.987,0.0127,-0.0105,-0.0149,-0.0129,0.0118,0.0031,0.2041,,,,,,,,
01:33.3,-0.987,0.0129,-0.0084,-0.0138,-0.0129,0.0118,0.0031,0.2041,,,,,,,,
01:33.3,-0.9866,0.0129,-0.0105,-0.0138,-0.0129,0.0118,0.0031,0.2041,,,,,,,,
01:33.3,-0.9876,0.0134,-0.0094,-0.0138,-0.0118,0.0117,0.0031,0.2041,,,,,,,,
01:33.3,-0.9873,0.0123,-0.0094,-0.016,-0.0107,0.0117,0.0031,0.2041,,,,,,,,
01:33.3,-0.9863,0.0126,-0.0094,-0.0149,-0.0118,0.0117,0.0031,0.2041,,,,,,,,
01:33.3,-0.9866,0.0136,-0.0094,-0.0138,-0.0107,0.0117,0.0031,0.2041,,,,,,,,
01:33.3,-0.987,0.0133,-0.0084,-0.0138,-0.0129,0.0117,0.0031,0.2041,,,,,,,,
01:33.3,-0.9861,0.0129,-0.0105,-0.0149,-0.0107,0.0117,0.0031,0.2041,,,,,,,,
01:33.3,-0.9862,0.0138,-0.0094,-0.016,-0.0118,0.0117,0.0031,0.2042,,,,,,,,
01:33.4,-0.9882,0.0137,-0.0094,-0.0149,-0.0129,0.0117,0.0031,0.2041,,,,,,,,
01:33.4,-0.9879,0.0118,-0.0084,-0.0138,-0.0129,0.0117,0.0031,0.2042,,,,,,,,
01:33.4,-0.9872,0.012,-0.0094,-0.0138,-0.0107,0.0117,0.0031,0.2042,,,,,,,,
01:33.4,-0.9865,0.0127,-0.0094,-0.0138,-0.0107,0.0117,0.0031,0.2042,,,,,,,,
01:33.4,-0.9858,0.0135,-0.0094,-0.0149,-0.0118,0.0117,0.0031,0.2042,,,,,,,,
01:33.4,-0.9869,0.0141,-0.0083,-0.0149,-0.0129,0.0117,0.0031,0.2042,,,,,,,,
01:33.4,-0.987,0.013,-0.0094,-0.0149,-0.0118,0.0117,0.0031,0.2042,,,,,,,,
01:33.4,-0.9877,0.0129,-0.0105,-0.0149,-0.0118,0.0117,0.0031,0.2042,,,,,,,,
01:33.4,-0.9875,0.0122,-0.0084,-0.0149,-0.0118,0.0116,0.0031,0.2042,,,,,,,,
01:33.4,-0.986,0.0125,-0.0105,-0.0138,-0.0107,0.0116,0.0031,0.2042,,,,,,,,
01:33.5,-0.9864,0.0139,-0.0105,-0.0149,-0.0118,0.0116,0.0031,0.2042,,,,,,,,
01:33.5,-0.987,0.0135,-0.0105,-0.0138,-0.0107,0.0116,0.0031,0.2042,,,,,,,,
01:33.5,-0.9869,0.0129,-0.0094,-0.0149,-0.0118,0.0116,0.0031,0.2042,,,,,,,,
01:33.5,-0.9865,0.0131,-0.0094,-0.0149,-0.0118,0.0116,0.0031,0.2042,,,,,,,,
01:33.5,-0.987,0.0134,-0.0105,-0.0149,-0.0118,0.0116,0.0031,0.2042,,,,,,,,
01:33.5,-0.9869,0.0129,-0.0094,-0.0149,-0.0118,0.0116,0.0031,0.2042,,,,,,,,
01:33.5,-0.9874,0.0131,-0.0094,-0.0149,-0.0129,0.0116,0.0031,0.2042,,,,,,,,
01:33.5,-0.9871,0.0126,-0.0094,-0.0149,-0.0118,0.0116,0.0031,0.2042,,,,,,,,
01:33.5,-0.9857,0.0129,-0.0084,-0.0128,-0.0118,0.0116,0.0031,0.2042,,,,,,,,
01:33.5,-0.9862,0.0142,-0.0083,-0.0159,-0.0118,0.0116,0.0031,0.2042,,,,,,,,
01:33.6,-0.987,0.0137,-0.0094,-0.0149,-0.0118,0.0116,0.0031,0.2042,,,,,,,,
01:33.6,-0.9876,0.0129,-0.0084,-0.0149,-0.0118,0.0116,0.0031,0.2042,,,,,,,,
01:33.6,-0.9866,0.0123,-0.0094,-0.0138,-0.0118,0.0116,0.0031,0.2042,,,,,,,,
01:33.6,-0.9869,0.0133,-0.0094,-0.0138,-0.0118,0.0116,0.0031,0.2042,,,,,,,,
01:33.6,-0.9868,0.013,-0.0094,-0.0149,-0.0107,0.0116,0.0031,0.2042,,,,,,,,
01:33.6,-0.9869,0.0131,-0.0094,-0.0149,-0.0129,0.0116,0.0031,0.2042,,,,,,,,
01:33.6,-0.9862,0.013,-0.0094,-0.0138,-0.0118,0.0115,0.0031,0.2042,,,,,,,,
01:33.6,-0.9865,0.0138,-0.0083,-0.0159,-0.0118,0.0115,0.0031,0.2042,,,,,,,,
01:33.6,-0.9866,0.0134,-0.0084,-0.0149,-0.0118,0.0115,0.0031,0.2042,,,,,,,,
01:33.6,-0.9869,0.0134,-0.0105,-0.0149,-0.0107,0.0115,0.0031,0.2042,,,,,,,,
01:33.7,-0.9873,0.013,-0.0094,-0.0138,-0.0118,0.0115,0.0031,0.2042,,,,,,,,
01:33.7,-0.9875,0.0126,-0.0084,-0.0138,-0.0118,0.0115,0.0031,0.2042,,,,,,,,
01:33.7,-0.9864,0.0124,-0.0073,-0.0159,-0.0128,0.0115,0.0032,0.2042,,,,,,,,
01:33.7,-0.9864,0.0136,-0.0084,-0.0138,-0.0118,0.0115,0.0032,0.2042,,,,,,,,
01:33.7,-0.9867,0.0136,-0.0094,-0.0128,-0.0118,0.0115,0.0032,0.2042,,,,,,,,
01:33.7,-0.9867,0.0132,-0.0084,-0.0149,-0.0118,0.0115,0.0032,0.2042,,,,,,,,
01:33.7,-0.9874,0.0132,-0.0094,-0.0138,-0.0129,0.0115,0.0032,0.2042,,,,,,,,
01:33.7,-0.987,0.0125,-0.0094,-0.0138,-0.0129,0.0115,0.0032,0.2042,,,,,,,,
01:33.7,-0.9881,0.0129,-0.0115,-0.0149,-0.0107,0.0115,0.0032,0.2042,,,,,,,,
01:33.7,-0.9873,0.0118,-0.0105,-0.0149,-0.0139,0.0115,0.0031,0.2042,,,,,,,,
01:33.8,-0.9869,0.0127,-0.0094,-0.0149,-0.0129,0.0115,0.0032,0.2042,,,,,,,,
01:33.8,-0.9874,0.013,-0.0105,-0.0149,-0.0118,0.0115,0.0031,0.2042,,,,,,,,
01:33.8,-0.9866,0.0126,-0.0105,-0.0149,-0.0118,0.0115,0.0031,0.2042,,,,,,,,
01:33.8,-0.9873,0.0134,-0.0094,-0.0127,-0.0139,0.0115,0.0031,0.2042,,,,,,,,
01:33.8,-0.9869,0.0126,-0.0094,-0.0128,-0.0129,0.0115,0.0031,0.2042,,,,,,,,
01:33.8,-0.9868,0.013,-0.0094,-0.0138,-0.0118,0.0115,0.0031,0.2042,,,,,,,,
01:33.8,-0.9874,0.0131,-0.0105,-0.0149,-0.0107,0.0115,0.0031,0.2042,,,,,,,,
01:33.8,-0.9868,0.0125,-0.0105,-0.016,-0.0129,0.0115,0.0031,0.2042,,,,,,,,
01:33.8,-0.9868,0.0132,-0.0094,-0.0138,-0.0118,0.0115,0.0031,0.2042,,,,,,,,
01:33.8,-0.9869,0.0131,-0.0094,-0.0159,-0.0129,0.0115,0.0031,0.2042,,,,,,,,
01:33.9,-0.9864,0.0131,-0.0094,-0.0149,-0.0129,0.0115,0.0031,0.2042,,,,,,,,
01:33.9,-0.9865,0.0136,-0.0094,-0.0138,-0.0118,0.0115,0.0031,0.2042,,,,,,,,
01:33.9,-0.9871,0.0134,-0.0084,-0.0149,-0.0107,0.0115,0.0031,0.2042,,,,,,,,
01:33.9,-0.9868,0.0128,-0.0083,-0.0149,-0.0129,0.0114,0.0031,0.2042,,,,,,,,
01:33.9,-0.9869,0.0132,-0.0084,-0.0128,-0.0118,0.0115,0.0031,0.2042,,,,,,,,
01:33.9,-0.9879,0.013,-0.0094,-0.0138,-0.0129,0.0115,0.0031,0.2042,,,,,,,,
01:33.9,-0.9871,0.012,-0.0094,-0.0149,-0.0129,0.0115,0.0031,0.2042,,,,,,,,
01:33.9,-0.987,0.0128,-0.0094,-0.0138,-0.0139,0.0115,0.0031,0.2041,,,,,,,,
01:33.9,-0.9875,0.013,-0.0094,-0.0149,-0.0129,0.0115,0.0031,0.2041,,,,,,,,
01:33.9,-0.987,0.0124,-0.0084,-0.0128,-0.0118,0.0115,0.0032,0.2041,,,,,,,,
01:34.0,-0.987,0.0129,-0.0083,-0.0149,-0.0129,0.0115,0.0032,0.2041,,,,,,,,
01:34.0,-0.9866,0.013,-0.0094,-0.0149,-0.0118,0.0114,0.0032,0.2041,,,,,,,,
01:34.0,-0.9866,0.0133,-0.0094,-0.0117,-0.0139,0.0115,0.0032,0.2041,,,,,,,,
01:34.0,-0.9871,0.0134,-0.0105,-0.0128,-0.0107,0.0115,0.0032,0.2042,,,,,,,,
01:34.0,-0.9877,0.0129,-0.0084,-0.0138,-0.0118,0.0115,0.0032,0.2042,,,,,,,,
01:34.0,-0.987,0.0123,-0.0094,-0.016,-0.0107,0.0114,0.0032,0.2042,,,,,,,,
01:34.0,-0.987,0.0129,-0.0105,-0.0149,-0.0118,0.0114,0.0032,0.2042,,,,,,,,
01:34.0,-0.9874,0.013,-0.0084,-0.0149,-0.0107,0.0114,0.0032,0.2042,,,,,,,,
01:34.0,-0.9878,0.0126,-0.0116,-0.0128,-0.0107,0.0114,0.0032,0.2042,,,,,,,,
01:34.0,-0.9869,0.0121,-0.0084,-0.0138,-0.0107,0.0114,0.0032,0.2042,,,,,,,,
01:34.1,-0.9869,0.013,-0.0094,-0.0138,-0.0107,0.0114,0.0032,0.2042,,,,,,,,
01:34.1,-0.9859,0.013,-0.0083,-0.0149,-0.0129,0.0114,0.0032,0.2042,,,,,,,,
01:34.1,-0.9864,0.014,-0.0105,-0.0128,-0.0118,0.0114,0.0032,0.2042,,,,,,,,
01:34.1,-0.9863,0.0135,-0.0105,-0.0149,-0.0118,0.0114,0.0032,0.2042,,,,,,,,
01:34.1,-0.9867,0.0136,-0.0094,-0.0149,-0.0129,0.0114,0.0032,0.2042,,,,,,,,
01:34.1,-0.9871,0.0132,-0.0105,-0.0149,-0.0118,0.0114,0.0031,0.2042,,,,,,,,
01:34.1,-0.9869,0.0128,-0.0083,-0.0159,-0.0118,0.0114,0.0032,0.2042,,,,,,,,
01:34.1,-0.9871,0.013,-0.0094,-0.016,-0.0118,0.0114,0.0032,0.2042,,,,,,,,
01:34.1,-0.9877,0.0128,-0.0084,-0.0138,-0.0118,0.0114,0.0032,0.2042,,,,,,,,
01:34.1,-0.9867,0.0122,-0.0105,-0.016,-0.0107,0.0114,0.0032,0.2042,,,,,,,,
01:34.2,-0.9868,0.0132,-0.0084,-0.0138,-0.0107,0.0114,0.0032,0.2042,,,,,,,,
01:34.2,-0.9869,0.0131,-0.0073,-0.0159,-0.0118,0.0114,0.0032,0.2042,,,,,,,,
01:34.2,-0.9868,0.013,-0.0073,-0.0149,-0.0118,0.0114,0.0032,0.2042,,,,,,,,
01:34.2,-0.9865,0.0131,-0.0094,-0.0138,-0.0118,0.0113,0.0032,0.2042,,,,,,,,
01:34.2,-0.9869,0.0135,-0.0105,-0.0128,-0.0129,0.0113,0.0032,0.2042,,,,,,,,
01:34.2,-0.987,0.013,-0.0084,-0.0149,-0.0118,0.0113,0.0032,0.2042,,,,,,,,
01:34.2,-0.9865,0.0129,-0.0084,-0.0138,-0.0129,0.0113,0.0032,0.2042,,,,,,,,
01:34.2,-0.9864,0.0134,-0.0094,-0.016,-0.0118,0.0113,0.0032,0.2042,,,,,,,,
01:34.2,-0.9854,0.0136,-0.0094,-0.0128,-0.0118,0.0113,0.0032,0.2042,,,,,,,,
01:34.2,-0.9864,0.0145,-0.0084,-0.0138,-0.0118,0.0113,0.0032,0.2042,,,,,,,,
01:34.3,-0.9875,0.0135,-0.0084,-0.0149,-0.0118,0.0113,0.0032,0.2042,,,,,,,,
01:34.3,-0.9867,0.0125,-0.0094,-0.0149,-0.0107,0.0113,0.0032,0.2042,,,,,,,,
01:34.3,-0.9871,0.0132,-0.0084,-0.0138,-0.0118,0.0113,0.0032,0.2042,,,,,,,,
01:34.3,-0.9872,0.0129,-0.0094,-0.0149,-0.0129,0.0113,0.0032,0.2042,,,,,,,,
01:34.3,-0.9868,0.0127,-0.0094,-0.0138,-0.0118,0.0113,0.0032,0.2042,,,,,,,,
01:34.3,-0.9874,0.0131,-0.0083,-0.0159,-0.0129,0.0113,0.0033,0.2042,,,,,,,,
01:34.3,-0.9879,0.0126,-0.0073,-0.0149,-0.0128,0.0113,0.0033,0.2042,,,,,,,,
01:34.3,-0.9863,0.012,-0.0094,-0.0128,-0.0129,0.0113,0.0033,0.2042,,,,,,,,
01:34.3,-0.9863,0.0137,-0.0084,-0.0138,-0.0118,0.0113,0.0033,0.2042,,,,,,,,
01:34.3,-0.9874,0.0136,-0.0105,-0.0138,-0.0118,0.0113,0.0033,0.2042,,,,,,,,
01:34.4,-0.9853,0.0125,-0.0094,-0.0138,-0.0107,0.0113,0.0033,0.2042,,,,,,,,
01:34.4,-0.9857,0.0146,-0.0105,-0.0138,-0.0107,0.0113,0.0033,0.2042,,,,,,,,
01:34.4,-0.9872,0.0142,-0.0084,-0.0138,-0.0129,0.0113,0.0033,0.2042,,,,,,,,
01:34.4,-0.9861,0.0127,-0.0094,-0.016,-0.0118,0.0113,0.0032,0.2042,,,,,,,,
01:34.4,-0.9873,0.0138,-0.0094,-0.0138,-0.0139,0.0113,0.0032,0.2042,,,,,,,,
01:34.4,-0.988,0.0126,-0.0105,-0.0138,-0.0118,0.0113,0.0032,0.2042,,,,,,,,
01:34.4,-0.987,0.012,-0.0094,-0.0149,-0.0129,0.0113,0.0032,0.2042,,,,,,,,
01:34.4,-0.9864,0.0129,-0.0094,-0.0159,-0.0129,0.0113,0.0032,0.2042,,,,,,,,
01:34.4,-0.9865,0.0135,-0.0094,-0.0149,-0.0118,0.0112,0.0032,0.2042,,,,,,,,
01:34.4,-0.9862,0.0135,-0.0094,-0.0149,-0.0118,0.0112,0.0032,0.2042,,,,,,,,
01:34.5,-0.9874,0.0137,-0.0094,-0.0138,-0.0107,0.0112,0.0032,0.2042,,,,,,,,
01:34.5,-0.9876,0.0125,-0.0084,-0.0138,-0.0107,0.0112,0.0032,0.2042,,,,,,,,
01:34.5,-0.9861,0.0124,-0.0084,-0.0128,-0.0118,0.0113,0.0032,0.2042,,,,,,,,
01:34.5,-0.9871,0.0138,-0.0105,-0.0138,-0.0107,0.0113,0.0032,0.2042,,,,,,,,
01:34.5,-0.9872,0.0129,-0.0105,-0.0138,-0.0129,0.0113,0.0032,0.2042,,,,,,,,
01:34.5,-0.9865,0.0127,-0.0105,-0.0138,-0.0107,0.0113,0.0032,0.2042,,,,,,,,
01:34.5,-0.9862,0.0134,-0.0083,-0.016,-0.0107,0.0113,0.0032,0.2043,,,,,,,,
01:34.5,-0.9862,0.0137,-0.0083,-0.0159,-0.0118,0.0112,0.0032,0.2043,,,,,,,,
01:34.5,-0.9876,0.0137,-0.0094,-0.0149,-0.0139,0.0112,0.0032,0.2042,,,,,,,,
01:34.5,-0.9874,0.0123,-0.0094,-0.0138,-0.0118,0.0112,0.0032,0.2042,,,,,,,,
01:34.6,-0.9867,0.0125,-0.0094,-0.0138,-0.0118,0.0112,0.0032,0.2043,,,,,,,,
01:34.6,-0.9863,0.0132,-0.0094,-0.016,-0.0107,0.0112,0.0032,0.2043,,,,,,,,
01:34.6,-0.9877,0.0136,-0.0094,-0.0149,-0.0118,0.0112,0.0032,0.2043,,,,,,,,
01:34.6,-0.9869,0.0122,-0.0094,-0.016,-0.0118,0.0112,0.0032,0.2043,,,,,,,,
01:34.6,-0.9875,0.0131,-0.0073,-0.0138,-0.0107,0.0112,0.0032,0.2043,,,,,,,,
01:34.6,-0.9877,0.0124,-0.0083,-0.0159,-0.0129,0.0112,0.0032,0.2043,,,,,,,,
01:34.6,-0.9866,0.0122,-0.0094,-0.0149,-0.0118,0.0112,0.0032,0.2043,,,,,,,,
01:34.6,-0.9865,0.0133,-0.0115,-0.016,-0.0118,0.0112,0.0032,0.2043,,,,,,,,
01:34.6,-0.9863,0.0135,-0.0084,-0.0138,-0.0118,0.0112,0.0032,0.2043,,,,,,,,
01:34.6,-0.9868,0.0136,-0.0094,-0.0149,-0.0129,0.0111,0.0032,0.2043,,,,,,,,
01:34.7,-0.9865,0.0131,-0.0083,-0.0149,-0.0129,0.0111,0.0032,0.2043,,,,,,,,
01:34.7,-0.9863,0.0134,-0.0094,-0.0149,-0.0107,0.0111,0.0032,0.2043,,,,,,,,
01:34.7,-0.9867,0.0136,-0.0094,-0.0149,-0.0118,0.0111,0.0032,0.2043,,,,,,,,
01:34.7,-0.9865,0.0132,-0.0083,-0.0159,-0.0118,0.0111,0.0032,0.2043,,,,,,,,
01:34.7,-0.987,0.0135,-0.0094,-0.0159,-0.0139,0.0111,0.0032,0.2043,,,,,,,,
01:34.7,-0.9872,0.0129,-0.0094,-0.0138,-0.0118,0.0111,0.0032,0.2043,,,,,,,,
01:34.7,-0.9872,0.0127,-0.0105,-0.0138,-0.0118,0.0111,0.0032,0.2043,,,,,,,,
01:34.7,-0.9858,0.0128,-0.0094,-0.0149,-0.0129,0.0111,0.0032,0.2043,,,,,,,,
01:34.7,-0.9869,0.0141,-0.0083,-0.0159,-0.0129,0.0111,0.0032,0.2043,,,,,,,,
01:34.7,-0.9876,0.0131,-0.0105,-0.0149,-0.0118,0.0111,0.0032,0.2043,,,,,,,,
01:34.7,-0.9865,0.0123,-0.0105,-0.0138,-0.0129,0.0111,0.0032,0.2043,,,,,,,,
01:34.8,-0.9867,0.0135,-0.0094,-0.0138,-0.0118,0.0111,0.0032,0.2043,,,,,,,,
01:34.8,-0.9865,0.0133,-0.0094,-0.0128,-0.0129,0.0111,0.0032,0.2043,,,,,,,,
01:34.8,-0.9868,0.0134,-0.0084,-0.0149,-0.0118,0.0111,0.0032,0.2043,,,,,,,,
01:34.8,-0.9869,0.0131,-0.0094,-0.0138,-0.0118,0.0111,0.0032,0.2043,,,,,,,,
01:34.8,-0.9876,0.013,-0.0094,-0.0149,-0.0107,0.0111,0.0032,0.2043,,,,,,,,
01:34.8,-0.9872,0.0123,-0.0105,-0.0128,-0.0107,0.0111,0.0032,0.2043,,,,,,,,
01:34.8,-0.9874,0.0127,-0.0094,-0.0138,-0.0118,0.0111,0.0032,0.2043,,,,,,,,
01:34.8,-0.9872,0.0125,-0.0094,-0.0128,-0.0129,0.0111,0.0032,0.2043,,,,,,,,
01:34.8,-0.9873,0.0127,-0.0083,-0.0149,-0.0129,0.0111,0.0032,0.2043,,,,,,,,
01:34.8,-0.9873,0.0127,-0.0094,-0.0149,-0.0129,0.0111,0.0032,0.2043,,,,,,,,
01:34.9,-0.9857,0.0126,-0.0094,-0.0138,-0.0118,0.0111,0.0032,0.2043,,,,,,,,
01:34.9,-0.9874,0.0142,-0.0084,-0.0138,-0.0118,0.0111,0.0032,0.2043,,,,,,,,
01:34.9,-0.9873,0.0126,-0.0094,-0.0138,-0.0118,0.0111,0.0032,0.2043,,,,,,,,
01:34.9,-0.987,0.0126,-0.0094,-0.0128,-0.0118,0.0111,0.0032,0.2043,,,,,,,,
01:34.9,-0.986,0.013,-0.0105,-0.016,-0.0118,0.0111,0.0032,0.2043,,,,,,,,
01:34.9,-0.9867,0.0139,-0.0084,-0.0138,-0.0118,0.0111,0.0032,0.2043,,,,,,,,
01:34.9,-0.9873,0.0133,-0.0084,-0.0138,-0.0129,0.0111,0.0032,0.2043,,,,,,,,
01:34.9,-0.9869,0.0126,-0.0094,-0.0138,-0.0118,0.0111,0.0032,0.2043,,,,,,,,
01:34.9,-0.9865,0.013,-0.0094,-0.0149,-0.0118,0.0111,0.0032,0.2043,,,,,,,,
01:34.9,-0.9864,0.0134,-0.0094,-0.0149,-0.0118,0.011,0.0032,0.2043,,,,,,,,
01:35.0,-0.9867,0.0135,-0.0094,-0.016,-0.0107,0.011,0.0032,0.2043,,,,,,,,
01:35.0,-0.9877,0.0132,-0.0105,-0.0138,-0.0118,0.011,0.0032,0.2043,,,,,,,,
01:35.0,-0.9872,0.0122,-0.0083,-0.0159,-0.0118,0.011,0.0032,0.2043,,,,,,,,
01:35.0,-0.9864,0.0128,-0.0094,-0.0159,-0.0129,0.011,0.0032,0.2043,,,,,,,,
01:35.0,-0.9873,0.0135,-0.0094,-0.016,-0.0118,0.011,0.0032,0.2043,,,,,,,,
01:35.0,-0.9874,0.0126,-0.0116,-0.0128,-0.0107,0.011,0.0032,0.2043,,,,,,,,
01:35.0,-0.9864,0.0125,-0.0094,-0.0149,-0.0118,0.011,0.0032,0.2043,,,,,,,,
01:35.0,-0.9868,0.0136,-0.0094,-0.016,-0.0118,0.011,0.0032,0.2043,,,,,,,,
01:35.0,-0.9862,0.0132,-0.0084,-0.0138,-0.0107,0.011,0.0032,0.2043,,,,,,,,
01:35.0,-0.9868,0.0137,-0.0105,-0.0149,-0.0118,0.011,0.0032,0.2043,,,,,,,,
01:35.1,-0.9882,0.0132,-0.0094,-0.0138,-0.0129,0.011,0.0032,0.2043,,,,,,,,
01:35.1,-0.9874,0.0117,-0.0105,-0.0149,-0.0118,0.011,0.0032,0.2043,,,,,,,,
01:35.1,-0.9867,0.0125,-0.0094,-0.016,-0.0118,0.011,0.0032,0.2043,,,,,,,,
01:35.1,-0.9869,0.0133,-0.0094,-0.0138,-0.0129,0.011,0.0032,0.2043,,,,,,,,
01:35.1,-0.9875,0.013,-0.0105,-0.0128,-0.0118,0.011,0.0032,0.2043,,,,,,,,
01:35.1,-0.9868,0.0125,-0.0094,-0.0149,-0.0118,0.011,0.0032,0.2043,,,,,,,,
01:35.1,-0.9865,0.0131,-0.0094,-0.0149,-0.0118,0.011,0.0032,0.2043,,,,,,,,
01:35.1,-0.9874,0.0134,-0.0094,-0.0128,-0.0118,0.011,0.0032,0.2043,,,,,,,,
01:35.1,-0.9869,0.0125,-0.0084,-0.0138,-0.0107,0.011,0.0032,0.2043,,,,,,,,
01:35.1,-0.9859,0.013,-0.0094,-0.0128,-0.0129,0.011,0.0032,0.2043,,,,,,,,
01:35.2,-0.9866,0.014,-0.0094,-0.0138,-0.0129,0.011,0.0032,0.2043,,,,,,,,
01:35.2,-0.9865,0.0133,-0.0105,-0.0138,-0.0118,0.011,0.0032,0.2043,,,,,,,,
01:35.2,-0.9862,0.0135,-0.0084,-0.016,-0.0097,0.011,0.0032,0.2043,,,,,,,,
01:35.2,-0.9874,0.0137,-0.0094,-0.0149,-0.0129,0.011,0.0032,0.2043,,,,,,,,
01:35.2,-0.9863,0.0125,-0.0094,-0.0128,-0.0118,0.011,0.0032,0.2043,,,,,,,,
01:35.2,-0.9865,0.0136,-0.0116,-0.0128,-0.0107,0.011,0.0032,0.2043,,,,,,,,
01:35.2,-0.9865,0.0135,-0.0083,-0.0159,-0.0118,0.011,0.0032,0.2043,,,,,,,,
01:35.2,-0.9881,0.0135,-0.0084,-0.0128,-0.0118,0.011,0.0032,0.2043,,,,,,,,
01:35.2,-0.9874,0.0118,-0.0084,-0.0138,-0.0129,0.011,0.0032,0.2043,,,,,,,,
01:35.2,-0.9866,0.0126,-0.0094,-0.0149,-0.0129,0.011,0.0032,0.2043,,,,,,,,
01:35.3,-0.9879,0.0133,-0.0084,-0.0138,-0.0129,0.011,0.0032,0.2043,,,,,,,,
01:35.3,-0.9873,0.0121,-0.0094,-0.0138,-0.0107,0.011,0.0032,0.2043,,,,,,,,
01:35.3,-0.9862,0.0126,-0.0094,-0.0138,-0.0129,0.011,0.0032,0.2043,,,,,,,,
01:35.3,-0.9875,0.0138,-0.0105,-0.0128,-0.0118,0.011,0.0032,0.2043,,,,,,,,
01:35.3,-0.9878,0.0125,-0.0094,-0.0149,-0.0118,0.011,0.0032,0.2043,,,,,,,,
01:35.3,-0.987,0.0121,-0.0094,-0.0149,-0.0118,0.011,0.0032,0.2043,,,,,,,,
01:35.3,-0.9863,0.013,-0.0084,-0.0149,-0.0118,0.011,0.0032,0.2043,,,,,,,,
01:35.3,-0.9867,0.0137,-0.0115,-0.0149,-0.0118,0.011,0.0032,0.2043,,,,,,,,
01:35.3,-0.9862,0.0132,-0.0094,-0.0138,-0.0107,0.011,0.0032,0.2043,,,,,,,,
01:35.3,-0.9863,0.0137,-0.0094,-0.0149,-0.0107,0.011,0.0032,0.2043,,,,,,,,
01:35.4,-0.9865,0.0137,-0.0084,-0.0149,-0.0097,0.011,0.0032,0.2043,,,,,,,,
01:35.4,-0.9869,0.0135,-0.0105,-0.0149,-0.0129,0.011,0.0032,0.2043,,,,,,,,
01:35.4,-0.9874,0.0131,-0.0105,-0.0138,-0.0129,0.011,0.0032,0.2043,,,,,,,,
01:35.4,-0.9876,0.0126,-0.0084,-0.0149,-0.0118,0.011,0.0032,0.2043,,,,,,,,
01:35.4,-0.9867,0.0123,-0.0105,-0.0138,-0.0118,0.011,0.0032,0.2043,,,,,,,,
01:35.4,-0.9859,0.0133,-0.0105,-0.0149,-0.0118,0.011,0.0031,0.2043,,,,,,,,
01:35.4,-0.987,0.014,-0.0083,-0.0159,-0.0118,0.0109,0.0032,0.2043,,,,,,,,
01:35.4,-0.9871,0.013,-0.0105,-0.0138,-0.0118,0.0109,0.0032,0.2043,,,,,,,,
01:35.4,-0.986,0.0128,-0.0084,-0.0149,-0.0118,0.0109,0.0032,0.2043,,,,,,,,
01:35.4,-0.9865,0.0139,-0.0115,-0.0149,-0.0129,0.0109,0.0032,0.2043,,,,,,,,
01:35.5,-0.9871,0.0134,-0.0083,-0.0149,-0.0129,0.0109,0.0032,0.2043,,,,,,,,
01:35.5,-0.988,0.0128,-0.0094,-0.0128,-0.0107,0.0109,0.0032,0.2043,,,,,,,,
01:35.5,-0.9874,0.0119,-0.0094,-0.0149,-0.0118,0.0109,0.0032,0.2043,,,,,,,,
01:35.5,-0.9876,0.0125,-0.0105,-0.0138,-0.0118,0.0109,0.0031,0.2043,,,,,,,,
01:35.5,-0.9874,0.0123,-0.0094,-0.0138,-0.0118,0.0109,0.0031,0.2043,,,,,,,,
01:35.5,-0.9857,0.0125,-0.0094,-0.016,-0.0118,0.0109,0.0031,0.2043,,,,,,,,
01:35.5,-0.9877,0.0142,-0.0094,-0.0117,-0.0129,0.0109,0.0031,0.2043,,,,,,,,
01:35.5,-0.987,0.0123,-0.0105,-0.0138,-0.0118,0.0109,0.0031,0.2043,,,,,,,,
01:35.5,-0.9863,0.0129,-0.0084,-0.0138,-0.0118,0.0109,0.0031,0.2043,,,,,,,,
01:35.5,-0.9875,0.0137,-0.0094,-0.0128,-0.0129,0.0109,0.0031,0.2043,,,,,,,,
01:35.6,-0.9868,0.0125,-0.0084,-0.0138,-0.0118,0.0109,0.0031,0.2043,,,,,,,,
01:35.6,-0.9865,0.0131,-0.0094,-0.0149,-0.0107,0.0109,0.0031,0.2043,,,,,,,,
01:35.6,-0.9868,0.0134,-0.0073,-0.0138,-0.0096,0.0109,0.0031,0.2043,,,,,,,,
01:35.6,-0.9879,0.0131,-0.0094,-0.0159,-0.0129,0.0109,0.0031,0.2043,,,,,,,,
01:35.6,-0.9876,0.012,-0.0105,-0.0138,-0.0129,0.0109,0.0031,0.2043,,,,,,,,
01:35.6,-0.9872,0.0123,-0.0094,-0.0149,-0.0118,0.0109,0.0031,0.2043,,,,,,,,
01:35.6,-0.9882,0.0127,-0.0094,-0.017,-0.0118,0.0109,0.0031,0.2043,,,,,,,,
01:35.6,-0.9871,0.0117,-0.0094,-0.0149,-0.0107,0.0108,0.0031,0.2043,,,,,,,,
01:35.6,-0.9864,0.0129,-0.0084,-0.0138,-0.0118,0.0108,0.0031,0.2043,,,,,,,,
01:35.6,-0.988,0.0135,-0.0105,-0.0138,-0.0118,0.0109,0.0031,0.2043,,,,,,,,
01:35.7,-0.9858,0.0119,-0.0105,-0.0138,-0.0107,0.0109,0.0031,0.2043,,,,,,,,
01:35.7,-0.9865,0.0141,-0.0083,-0.0149,-0.0129,0.0109,0.0031,0.2043,,,,,,,,
01:35.7,-0.9885,0.0135,-0.0084,-0.0138,-0.0107,0.0109,0.0031,0.2043,,,,,,,,
01:35.7,-0.9852,0.0114,-0.0084,-0.0127,-0.0128,0.0109,0.0031,0.2043,,,,,,,,
01:35.7,-0.9871,0.0147,-0.0094,-0.0138,-0.0107,0.0109,0.0031,0.2043,,,,,,,,
01:35.7,-0.9861,0.0128,-0.0094,-0.0138,-0.0118,0.0109,0.0031,0.2043,,,,,,,,
01:35.7,-0.9874,0.0138,-0.0115,-0.0149,-0.0118,0.0108,0.0031,0.2043,,,,,,,,
01:35.7,-0.9877,0.0126,-0.0105,-0.0138,-0.0118,0.0108,0.0031,0.2043,,,,,,,,
01:35.7,-0.9866,0.0123,-0.0094,-0.016,-0.0118,0.0108,0.0031,0.2043,,,,,,,,
01:35.7,-0.988,0.0134,-0.0094,-0.0138,-0.0129,0.0108,0.0031,0.2043,,,,,,,,
01:35.8,-0.9863,0.0119,-0.0094,-0.0149,-0.0118,0.0108,0.0031,0.2043,,,,,,,,
01:35.8,-0.988,0.0137,-0.0094,-0.0138,-0.0118,0.0108,0.0031,0.2043,,,,,,,,
01:35.8,-0.9855,0.0119,-0.0094,-0.0138,-0.0107,0.0108,0.0031,0.2043,,,,,,,,
01:35.8,-0.9867,0.0144,-0.0084,-0.0149,-0.0118,0.0108,0.0031,0.2043,,,,,,,,
01:35.8,-0.9863,0.0132,-0.0094,-0.0138,-0.0118,0.0108,0.0031,0.2043,,,,,,,,
01:35.8,-0.9866,0.0137,-0.0105,-0.0138,-0.0118,0.0108,0.0031,0.2043,,,,,,,,
01:35.8,-0.9872,0.0134,-0.0084,-0.0138,-0.0129,0.0108,0.0031,0.2043,,,,,,,,
01:35.8,-0.9861,0.0127,-0.0084,-0.0138,-0.0129,0.0108,0.0031,0.2043,,,,,,,,
01:35.8,-0.9869,0.0139,-0.0105,-0.0128,-0.0129,0.0108,0.0031,0.2043,,,,,,,,
01:35.8,-0.9873,0.013,-0.0094,-0.0149,-0.0118,0.0108,0.0031,0.2043,,,,,,,,
01:35.9,-0.986,0.0126,-0.0084,-0.0138,-0.0129,0.0108,0.0031,0.2043,,,,,,,,
01:35.9,-0.9858,0.0139,-0.0094,-0.0149,-0.0129,0.0108,0.0031,0.2043,,,,,,,,
01:35.9,-0.9871,0.0142,-0.0073,-0.0149,-0.0128,0.0108,0.0031,0.2043,,,,,,,,
01:35.9,-0.9868,0.0128,-0.0105,-0.0138,-0.0118,0.0108,0.0031,0.2043,,,,,,,,
01:35.9,-0.9868,0.0132,-0.0094,-0.0159,-0.0129,0.0107,0.0031,0.2043,,,,,,,,
01:35.9,-0.9869,0.0131,-0.0073,-0.0138,-0.0118,0.0107,0.0031,0.2044,,,,,,,,
01:35.9,-0.9882,0.013,-0.0094,-0.0138,-0.0107,0.0107,0.0031,0.2044,,,,,,,,
01:35.9,-0.9865,0.0117,-0.0094,-0.0159,-0.0129,0.0107,0.0032,0.2044,,,,,,,,
01:35.9,-0.9871,0.0134,-0.0084,-0.0128,-0.0107,0.0107,0.0032,0.2044,,,,,,,,
01:35.9,-0.9871,0.0128,-0.0084,-0.0128,-0.0118,0.0107,0.0032,0.2044,,,,,,,,
01:36.0,-0.9871,0.0129,-0.0084,-0.0138,-0.0129,0.0108,0.0032,0.2044,,,,,,,,
01:36.0,-0.9875,0.0128,-0.0084,-0.0138,-0.0118,0.0107,0.0032,0.2044,,,,,,,,
01:36.0,-0.9866,0.0125,-0.0094,-0.0149,-0.0107,0.0107,0.0032,0.2044,,,,,,,,
01:36.0,-0.9877,0.0134,-0.0094,-0.0128,-0.0118,0.0108,0.0032,0.2044,,,,,,,,
01:36.0,-0.9875,0.0122,-0.0094,-0.0138,-0.0129,0.0108,0.0032,0.2044,,,,,,,,
01:36.0,-0.9872,0.0125,-0.0105,-0.0149,-0.0129,0.0107,0.0032,0.2044,,,,,,,,
01:36.0,-0.9867,0.0128,-0.0094,-0.0149,-0.0129,0.0107,0.0032,0.2044,,,,,,,,
01:36.0,-0.9865,0.0132,-0.0084,-0.0127,-0.0128,0.0107,0.0032,0.2043,,,,,,,,
01:36.0,-0.9872,0.0135,-0.0094,-0.0138,-0.0107,0.0107,0.0032,0.2044,,,,,,,,
01:36.0,-0.9869,0.0128,-0.0073,-0.0149,-0.0118,0.0107,0.0032,0.2044,,,,,,,,
01:36.0,-0.9863,0.013,-0.0094,-0.0128,-0.0129,0.0107,0.0032,0.2044,,,,,,,,
01:36.1,-0.9876,0.0136,-0.0094,-0.0149,-0.0129,0.0107,0.0032,0.2044,,,,,,,,
01:36.1,-0.9863,0.0124,-0.0083,-0.0149,-0.0129,0.0107,0.0032,0.2043,,,,,,,,
01:36.1,-0.9871,0.0137,-0.0115,-0.0138,-0.0139,0.0107,0.0032,0.2043,,,,,,,,
01:36.1,-0.9865,0.0128,-0.0105,-0.016,-0.0107,0.0107,0.0032,0.2043,,,,,,,,
01:36.1,-0.9876,0.0134,-0.0105,-0.0138,-0.0129,0.0107,0.0032,0.2043,,,,,,,,
01:36.1,-0.9875,0.0124,-0.0105,-0.0149,-0.0129,0.0107,0.0032,0.2043,,,,,,,,
01:36.1,-0.9858,0.0125,-0.0094,-0.0138,-0.0118,0.0107,0.0032,0.2043,,,,,,,,
01:36.1,-0.9866,0.0141,-0.0094,-0.0149,-0.0118,0.0107,0.0032,0.2043,,,,,,,,
01:36.1,-0.986,0.0133,-0.0116,-0.0138,-0.0107,0.0107,0.0032,0.2044,,,,,,,,
01:36.1,-0.9871,0.014,-0.0105,-0.0149,-0.0107,0.0107,0.0032,0.2044,,,,,,,,
01:36.2,-0.9874,0.0128,-0.0084,-0.0138,-0.0118,0.0107,0.0032,0.2044,,,,,,,,
01:36.2,-0.9868,0.0125,-0.0094,-0.016,-0.0107,0.0107,0.0032,0.2044,,,,,,,,
01:36.2,-0.987,0.0132,-0.0094,-0.0149,-0.0129,0.0107,0.0032,0.2044,,,,,,,,
01:36.2,-0.9856,0.013,-0.0105,-0.016,-0.0118,0.0106,0.0032,0.2044,,,,,,,,
01:36.2,-0.9865,0.0143,-0.0094,-0.0138,-0.0118,0.0106,0.0032,0.2044,,,,,,,,
01:36.2,-0.9868,0.0134,-0.0083,-0.0159,-0.0129,0.0106,0.0032,0.2044,,,,,,,,
01:36.2,-0.9862,0.0132,-0.0084,-0.0138,-0.0129,0.0106,0.0032,0.2044,,,,,,,,
01:36.2,-0.9874,0.0137,-0.0105,-0.0149,-0.0129,0.0106,0.0032,0.2043,,,,,,,,
01:36.2,-0.987,0.0126,-0.0094,-0.016,-0.0118,0.0106,0.0032,0.2044,,,,,,,,
01:36.2,-0.987,0.013,-0.0094,-0.0128,-0.0118,0.0106,0.0032,0.2044,,,,,,,,
01:36.3,-0.9877,0.0129,-0.0105,-0.0138,-0.0118,0.0106,0.0032,0.2044,,,,,,,,
01:36.3,-0.9867,0.0122,-0.0073,-0.0149,-0.0128,0.0106,0.0032,0.2044,,,,,,,,
01:36.3,-0.9864,0.0132,-0.0084,-0.0138,-0.0129,0.0106,0.0032,0.2044,,,,,,,,
01:36.3,-0.9868,0.0135,-0.0073,-0.0149,-0.0107,0.0106,0.0032,0.2044,,,,,,,,
01:36.3,-0.987,0.0131,-0.0084,-0.0149,-0.0107,0.0106,0.0032,0.2044,,,,,,,,
01:36.3,-0.9864,0.0129,-0.0073,-0.0159,-0.0118,0.0106,0.0032,0.2044,,,,,,,,
01:36.3,-0.9861,0.0136,-0.0105,-0.016,-0.0118,0.0106,0.0032,0.2044,,,,,,,,
01:36.3,-0.9878,0.0138,-0.0105,-0.0138,-0.0129,0.0106,0.0032,0.2044,,,,,,,,
01:36.3,-0.9871,0.0121,-0.0094,-0.0138,-0.0129,0.0106,0.0032,0.2044,,,,,,,,
01:36.3,-0.9875,0.0129,-0.0084,-0.0128,-0.0107,0.0106,0.0032,0.2044,,,,,,,,
01:36.4,-0.9871,0.0125,-0.0094,-0.0149,-0.0097,0.0106,0.0032,0.2044,,,,,,,,
01:36.4,-0.9861,0.0128,-0.0084,-0.0138,-0.0118,0.0106,0.0032,0.2044,,,,,,,,
01:36.4,-0.9866,0.0138,-0.0094,-0.0149,-0.0129,0.0106,0.0032,0.2044,,,,,,,,
01:36.4,-0.9875,0.0133,-0.0094,-0.0128,-0.0118,0.0106,0.0032,0.2044,,,,,,,,
01:36.4,-0.987,0.0124,-0.0094,-0.0149,-0.0118,0.0106,0.0032,0.2044,,,,,,,,
01:36.4,-0.987,0.013,-0.0094,-0.0138,-0.0107,0.0106,0.0032,0.2044,,,,,,,,
01:36.4,-0.9865,0.013,-0.0105,-0.0138,-0.0118,0.0106,0.0032,0.2044,,,,,,,,
01:36.4,-0.9863,0.0135,-0.0094,-0.0138,-0.0107,0.0106,0.0032,0.2044,,,,,,,,
01:36.4,-0.9868,0.0136,-0.0083,-0.0149,-0.0129,0.0106,0.0032,0.2044,,,,,,,,
01:36.4,-0.9868,0.0131,-0.0094,-0.016,-0.0097,0.0105,0.0032,0.2044,,,,,,,,
01:36.5,-0.9864,0.0132,-0.0083,-0.0149,-0.0129,0.0105,0.0032,0.2044,,,,,,,,
01:36.5,-0.9874,0.0135,-0.0094,-0.0138,-0.0118,0.0105,0.0032,0.2044,,,,,,,,
01:36.5,-0.9881,0.0126,-0.0094,-0.0149,-0.0129,0.0105,0.0032,0.2044,,,,,,,,
01:36.5,-0.9866,0.0118,-0.0094,-0.0128,-0.0107,0.0105,0.0032,0.2044,,,,,,,,
01:36.5,-0.9859,0.0133,-0.0094,-0.0138,-0.0129,0.0105,0.0032,0.2044,,,,,,,,
01:36.5,-0.9869,0.0141,-0.0084,-0.0149,-0.0107,0.0105,0.0032,0.2044,,,,,,,,
01:36.5,-0.9876,0.013,-0.0094,-0.0138,-0.0129,0.0105,0.0032,0.2044,,,,,,,,
01:36.5,-0.9874,0.0123,-0.0094,-0.0138,-0.0129,0.0105,0.0032,0.2044,,,,,,,,
01:36.5,-0.9861,0.0126,-0.0084,-0.0138,-0.0118,0.0105,0.0032,0.2044,,,,,,,,
01:36.5,-0.9867,0.0139,-0.0094,-0.0149,-0.0118,0.0105,0.0032,0.2044,,,,,,,,
01:36.6,-0.9866,0.0132,-0.0073,-0.0138,-0.0118,0.0105,0.0032,0.2044,,,,,,,,
01:36.6,-0.9874,0.0134,-0.0105,-0.0138,-0.0118,0.0105,0.0032,0.2044,,,,,,,,
01:36.6,-0.9876,0.0125,-0.0094,-0.0138,-0.0129,0.0105,0.0032,0.2044,,,,,,,,
01:36.6,-0.9872,0.0123,-0.0105,-0.0138,-0.0118,0.0105,0.0032,0.2044,,,,,,,,
01:36.6,-0.9865,0.0127,-0.0073,-0.0149,-0.0128,0.0105,0.0032,0.2044,,,,,,,,
01:36.6,-0.987,0.0135,-0.0083,-0.0149,-0.0129,0.0105,0.0032,0.2044,,,,,,,,
01:36.6,-0.9872,0.0129,-0.0105,-0.016,-0.0129,0.0105,0.0032,0.2044,,,,,,,,
01:36.6,-0.9853,0.0128,-0.0094,-0.0149,-0.0129,0.0105,0.0032,0.2044,,,,,,,,
01:36.6,-0.9868,0.0146,-0.0105,-0.0128,-0.0118,0.0105,0.0032,0.2044,,,,,,,,
01:36.6,-0.9868,0.0131,-0.0105,-0.0138,-0.0118,0.0105,0.0032,0.2044,,,,,,,,
01:36.7,-0.987,0.0131,-0.0084,-0.0149,-0.0118,0.0105,0.0032,0.2044,,,,,,,,
01:36.7,-0.9872,0.0129,-0.0105,-0.0149,-0.0118,0.0105,0.0032,0.2044,,,,,,,,
01:36.7,-0.9874,0.0127,-0.0094,-0.0159,-0.0139,0.0105,0.0032,0.2044,,,,,,,,
01:36.7,-0.9867,0.0125,-0.0105,-0.0138,-0.0129,0.0105,0.0032,0.2044,,,,,,,,
01:36.7,-0.9868,0.0133,-0.0094,-0.0149,-0.0118,0.0105,0.0032,0.2044,,,,,,,,
01:36.7,-0.9873,0.0131,-0.0084,-0.0149,-0.0118,0.0105,0.0032,0.2044,,,,,,,,
01:36.7,-0.9865,0.0126,-0.0084,-0.0138,-0.0129,0.0104,0.0032,0.2044,,,,,,,,
01:36.7,-0.9869,0.0134,-0.0084,-0.0138,-0.0129,0.0104,0.0032,0.2044,,,,,,,,
01:36.7,-0.9866,0.0131,-0.0094,-0.0149,-0.0129,0.0104,0.0032,0.2044,,,,,,,,
01:36.7,-0.9863,0.0134,-0.0094,-0.0149,-0.0118,0.0104,0.0032,0.2044,,,,,,,,
01:36.8,-0.987,0.0136,-0.0094,-0.016,-0.0118,0.0104,0.0032,0.2044,,,,,,,,
01:36.8,-0.987,0.013,-0.0083,-0.017,-0.0118,0.0104,0.0032,0.2044,,,,,,,,
01:36.8,-0.9867,0.013,-0.0105,-0.0138,-0.0118,0.0104,0.0032,0.2044,,,,,,,,
01:36.8,-0.9876,0.0132,-0.0105,-0.0138,-0.0118,0.0104,0.0032,0.2044,,,,,,,,
01:36.8,-0.9865,0.0124,-0.0094,-0.0149,-0.0118,0.0104,0.0032,0.2044,,,,,,,,
01:36.8,-0.9861,0.0135,-0.0094,-0.0149,-0.0118,0.0104,0.0032,0.2044,,,,,,,,
01:36.8,-0.9873,0.0139,-0.0105,-0.016,-0.0129,0.0104,0.0032,0.2044,,,,,,,,
01:36.8,-0.9871,0.0126,-0.0105,-0.0138,-0.0139,0.0104,0.0032,0.2044,,,,,,,,
01:36.8,-0.9864,0.0129,-0.0105,-0.0149,-0.0129,0.0104,0.0032,0.2043,,,,,,,,
01:36.8,-0.9869,0.0136,-0.0094,-0.0149,-0.0107,0.0103,0.0032,0.2044,,,,,,,,
01:36.9,-0.9872,0.013,-0.0094,-0.0138,-0.0118,0.0103,0.0032,0.2044,,,,,,,,
01:36.9,-0.9874,0.0128,-0.0084,-0.0149,-0.0107,0.0103,0.0032,0.2044,,,,,,,,
01:36.9,-0.9876,0.0126,-0.0105,-0.0138,-0.0129,0.0103,0.0032,0.2044,,,,,,,,
01:36.9,-0.9861,0.0123,-0.0094,-0.0138,-0.0118,0.0103,0.0032,0.2044,,,,,,,,
01:36.9,-0.9865,0.0138,-0.0084,-0.0128,-0.0107,0.0103,0.0032,0.2044,,,,,,,,
01:36.9,-0.9875,0.0135,-0.0094,-0.0149,-0.0107,0.0103,0.0032,0.2044,,,,,,,,
01:36.9,-0.9872,0.0124,-0.0094,-0.0149,-0.0129,0.0103,0.0032,0.2044,,,,,,,,
01:36.9,-0.9854,0.0128,-0.0105,-0.0149,-0.0118,0.0103,0.0032,0.2044,,,,,,,,
01:36.9,-0.9873,0.0145,-0.0084,-0.0138,-0.0129,0.0103,0.0032,0.2044,,,,,,,,
01:36.9,-0.9873,0.0126,-0.0094,-0.0138,-0.0129,0.0103,0.0032,0.2044,,,,,,,,
01:37.0,-0.9872,0.0126,-0.0094,-0.0128,-0.0129,0.0103,0.0032,0.2043,,,,,,,,
01:37.0,-0.9864,0.0128,-0.0105,-0.0149,-0.0107,0.0103,0.0032,0.2044,,,,,,,,
01:37.0,-0.9863,0.0136,-0.0094,-0.0149,-0.0118,0.0103,0.0032,0.2043,,,,,,,,
01:37.0,-0.9863,0.0136,-0.0105,-0.0149,-0.0107,0.0103,0.0032,0.2044,,,,,,,,
01:37.0,-0.9864,0.0136,-0.0094,-0.0138,-0.0107,0.0103,0.0032,0.2044,,,,,,,,
01:37.0,-0.9866,0.0136,-0.0094,-0.0138,-0.0118,0.0103,0.0032,0.2044,,,,,,,,
01:37.0,-0.9871,0.0133,-0.0105,-0.0149,-0.0118,0.0103,0.0032,0.2044,,,,,,,,
01:37.0,-0.9867,0.0129,-0.0094,-0.0138,-0.0118,0.0103,0.0032,0.2044,,,,,,,,
01:37.0,-0.987,0.0133,-0.0105,-0.0149,-0.0129,0.0103,0.0032,0.2043,,,,,,,,
01:37.0,-0.9872,0.013,-0.0094,-0.0138,-0.0118,0.0103,0.0032,0.2043,,,,,,,,
01:37.1,-0.9868,0.0127,-0.0094,-0.0138,-0.0118,0.0103,0.0032,0.2044,,,,,,,,
01:37.1,-0.9859,0.0132,-0.0094,-0.0138,-0.0107,0.0103,0.0032,0.2044,,,,,,,,
01:37.1,-0.987,0.014,-0.0094,-0.0149,-0.0118,0.0103,0.0031,0.2044,,,,,,,,
01:37.1,-0.9879,0.0129,-0.0094,-0.0149,-0.0129,0.0103,0.0032,0.2044,,,,,,,,
01:37.1,-0.9868,0.012,-0.0094,-0.0138,-0.0118,0.0103,0.0032,0.2044,,,,,,,,
01:37.1,-0.9867,0.0131,-0.0094,-0.0138,-0.0118,0.0103,0.0032,0.2044,,,,,,,,
01:37.1,-0.9872,0.0132,-0.0094,-0.017,-0.0118,0.0103,0.0032,0.2044,,,,,,,,
01:37.1,-0.9859,0.0127,-0.0094,-0.017,-0.0118,0.0103,0.0032,0.2044,,,,,,,,
01:37.1,-0.9864,0.014,-0.0105,-0.0149,-0.0118,0.0103,0.0031,0.2044,,,,,,,,
01:37.1,-0.9875,0.0136,-0.0094,-0.0138,-0.0118,0.0103,0.0031,0.2044,,,,,,,,
01:37.2,-0.9871,0.0124,-0.0083,-0.0149,-0.0139,0.0102,0.0031,0.2044,,,,,,,,
01:37.2,-0.9873,0.0128,-0.0105,-0.0128,-0.0118,0.0103,0.0031,0.2044,,,,,,,,
01:37.2,-0.987,0.0126,-0.0073,-0.0138,-0.0118,0.0102,0.0032,0.2043,,,,,,,,
01:37.2,-0.9868,0.0129,-0.0094,-0.0138,-0.0107,0.0102,0.0032,0.2043,,,,,,,,
01:37.2,-0.9881,0.0131,-0.0084,-0.0149,-0.0107,0.0102,0.0032,0.2044,,,,,,,,
01:37.2,-0.988,0.0118,-0.0094,-0.0149,-0.0118,0.0102,0.0032,0.2044,,,,,,,,
01:37.2,-0.9873,0.012,-0.0094,-0.0138,-0.0118,0.0102,0.0032,0.2044,,,,,,,,
01:37.2,-0.9862,0.0127,-0.0094,-0.0149,-0.0129,0.0102,0.0032,0.2044,,,,,,,,
01:37.2,-0.9863,0.0138,-0.0084,-0.0138,-0.0107,0.0102,0.0032,0.2044,,,,,,,,
01:37.2,-0.9876,0.0137,-0.0105,-0.0128,-0.0129,0.0102,0.0032,0.2044,,,,,,,,
01:37.3,-0.986,0.0123,-0.0105,-0.0138,-0.0129,0.0102,0.0032,0.2043,,,,,,,,
01:37.3,-0.986,0.0139,-0.0094,-0.0149,-0.0118,0.0102,0.0032,0.2043,,,,,,,,
01:37.3,-0.9859,0.0139,-0.0084,-0.0138,-0.0129,0.0102,0.0032,0.2043,,,,,,,,
01:37.3,-0.9862,0.014,-0.0094,-0.0149,-0.0118,0.0102,0.0032,0.2043,,,,,,,,
01:37.3,-0.9878,0.0138,-0.0094,-0.0128,-0.0129,0.0102,0.0032,0.2043,,,,,,,,
01:37.3,-0.987,0.0122,-0.0094,-0.0149,-0.0107,0.0102,0.0032,0.2043,,,,,,,,
01:37.3,-0.9865,0.013,-0.0084,-0.0149,-0.0118,0.0102,0.0032,0.2043,,,,,,,,
01:37.3,-0.9868,0.0134,-0.0073,-0.0138,-0.0118,0.0102,0.0032,0.2043,,,,,,,,
01:37.3,-0.9864,0.0132,-0.0083,-0.0159,-0.0118,0.0102,0.0032,0.2044,,,,,,,,
01:37.3,-0.9871,0.0135,-0.0105,-0.0138,-0.0118,0.0102,0.0032,0.2044,,,,,,,,
01:37.4,-0.9872,0.0129,-0.0094,-0.0138,-0.0129,0.0102,0.0032,0.2043,,,,,,,,
01:37.4,-0.9855,0.0128,-0.0105,-0.0149,-0.0139,0.0102,0.0032,0.2043,,,,,,,,
01:37.4,-0.9875,0.0144,-0.0105,-0.0128,-0.0129,0.0102,0.0031,0.2043,,,,,,,,
01:37.4,-0.9877,0.0125,-0.0094,-0.0159,-0.0129,0.0102,0.0031,0.2043,,,,,,,,
01:37.4,-0.9864,0.0123,-0.0094,-0.0159,-0.0139,0.0102,0.0031,0.2043,,,,,,,,
01:37.4,-0.9868,0.0135,-0.0084,-0.0127,-0.0128,0.0102,0.0031,0.2043,,,,,,,,
01:37.4,-0.9867,0.0131,-0.0105,-0.0149,-0.0118,0.0102,0.0031,0.2043,,,,,,,,
01:37.4,-0.9867,0.0133,-0.0083,-0.0159,-0.0129,0.0101,0.0031,0.2043,,,,,,,,
01:37.4,-0.9864,0.0133,-0.0094,-0.016,-0.0107,0.0101,0.0031,0.2043,,,,,,,,
01:37.4,-0.9873,0.0136,-0.0094,-0.0149,-0.0118,0.0101,0.0031,0.2043,,,,,,,,
01:37.5,-0.9865,0.0127,-0.0105,-0.0149,-0.0118,0.0101,0.0031,0.2043,,,,,,,,
01:37.5,-0.9876,0.0134,-0.0084,-0.0149,-0.0118,0.0101,0.0031,0.2043,,,,,,,,
01:37.5,-0.9872,0.0123,-0.0084,-0.0149,-0.0118,0.0101,0.0031,0.2043,,,,,,,,
01:37.5,-0.9867,0.0128,-0.0094,-0.0138,-0.0118,0.0101,0.0031,0.2043,,,,,,,,
01:37.5,-0.9866,0.0133,-0.0105,-0.0138,-0.0118,0.0101,0.0031,0.2043,,,,,,,,
01:37.5,-0.9879,0.0134,-0.0083,-0.0149,-0.0129,0.0101,0.0031,0.2043,,,,,,,,
01:37.5,-0.9874,0.0121,-0.0084,-0.0128,-0.0107,0.0101,0.0031,0.2043,,,,,,,,
01:37.5,-0.987,0.0125,-0.0094,-0.0138,-0.0118,0.0101,0.0031,0.2043,,,,,,,,
01:37.5,-0.9877,0.0129,-0.0094,-0.0138,-0.0129,0.0101,0.0031,0.2043,,,,,,,,
01:37.5,-0.9864,0.0123,-0.0094,-0.0128,-0.0118,0.0101,0.0031,0.2043,,,,,,,,
01:37.5,-0.9872,0.0136,-0.0094,-0.0128,-0.0118,0.0101,0.0031,0.2043,,,,,,,,
01:37.6,-0.9874,0.0128,-0.0105,-0.0138,-0.0118,0.0101,0.0031,0.2043,,,,,,,,
01:37.6,-0.9874,0.0125,-0.0084,-0.0138,-0.0129,0.0101,0.0031,0.2043,,,,,,,,
01:37.6,-0.9871,0.0126,-0.0094,-0.0138,-0.0129,0.0101,0.0031,0.2043,,,,,,,,
01:37.6,-0.9874,0.0128,-0.0105,-0.0149,-0.0107,0.0101,0.0031,0.2043,,,,,,,,
01:37.6,-0.9869,0.0125,-0.0105,-0.016,-0.0107,0.0101,0.0031,0.2043,,,,,,,,
01:37.6,-0.9864,0.013,-0.0084,-0.0138,-0.0118,0.0101,0.0031,0.2043,,,,,,,,
01:37.6,-0.9868,0.0135,-0.0094,-0.0138,-0.0129,0.0101,0.0031,0.2043,,,,,,,,
01:37.6,-0.9871,0.0131,-0.0094,-0.0138,-0.0118,0.0101,0.0031,0.2043,,,,,,,,
01:37.6,-0.9867,0.0128,-0.0094,-0.0128,-0.0129,0.0101,0.0031,0.2043,,,,,,,,
01:37.6,-0.9872,0.0132,-0.0083,-0.0159,-0.0118,0.0101,0.0031,0.2043,,,,,,,,
01:37.7,-0.9868,0.0128,-0.0083,-0.0149,-0.0129,0.0101,0.0031,0.2043,,,,,,,,
01:37.7,-0.9855,0.0131,-0.0084,-0.0149,-0.0118,0.0101,0.0031,0.2043,,,,,,,,
01:37.7,-0.9867,0.0144,-0.0084,-0.0149,-0.0107,0.0101,0.0031,0.2043,,,,,,,,
01:37.7,-0.9874,0.0132,-0.0094,-0.0149,-0.0118,0.0101,0.0031,0.2043,,,,,,,,
01:37.7,-0.9865,0.0125,-0.0083,-0.0149,-0.0129,0.0101,0.0031,0.2043,,,,,,,,
01:37.7,-0.9876,0.0134,-0.0094,-0.0138,-0.0118,0.0101,0.0031,0.2043,,,,,,,,
01:37.7,-0.9877,0.0124,-0.0084,-0.0138,-0.0118,0.0101,0.0031,0.2043,,,,,,,,
01:37.7,-0.9873,0.0122,-0.0094,-0.0138,-0.0129,0.0101,0.0031,0.2043,,,,,,,,
01:37.7,-0.9874,0.0127,-0.0105,-0.0138,-0.0118,0.0101,0.0031,0.2043,,,,,,,,
01:37.7,-0.9868,0.0125,-0.0105,-0.0138,-0.0107,0.0101,0.0031,0.2043,,,,,,,,
01:37.8,-0.9864,0.0131,-0.0094,-0.0138,-0.0118,0.0101,0.0031,0.2043,,,,,,,,
01:37.8,-0.9867,0.0135,-0.0073,-0.0159,-0.0107,0.0101,0.0031,0.2043,,,,,,,,
01:37.8,-0.9871,0.0132,-0.0083,-0.0138,-0.0139,0.01,0.0032,0.2043,,,,,,,,
01:37.8,-0.9871,0.0128,-0.0084,-0.0149,-0.0107,0.01,0.0032,0.2043,,,,,,,,
01:37.8,-0.9861,0.0128,-0.0084,-0.0138,-0.0129,0.01,0.0032,0.2043,,,,,,,,
01:37.8,-0.9856,0.0139,-0.0094,-0.0138,-0.0129,0.01,0.0032,0.2043,,,,,,,,
01:37.8,-0.9856,0.0143,-0.0105,-0.0138,-0.0107,0.01,0.0032,0.2043,,,,,,,,
01:37.8,-0.9873,0.0144,-0.0116,-0.0138,-0.0118,0.01,0.0032,0.2043,,,,,,,,
01:37.8,-0.9867,0.0126,-0.0084,-0.0149,-0.0118,0.01,0.0032,0.2043,,,,,,,,
01:37.8,-0.9866,0.0133,-0.0094,-0.0138,-0.0129,0.01,0.0032,0.2043,,,,,,,,
01:37.9,-0.9866,0.0134,-0.0094,-0.0138,-0.0118,0.01,0.0032,0.2043,,,,,,,,
01:37.9,-0.9865,0.0134,-0.0105,-0.0138,-0.0129,0.0101,0.0031,0.2043,,,,,,,,
01:37.9,-0.9875,0.0134,-0.0126,-0.016,-0.0118,0.01,0.0031,0.2043,,,,,,,,
01:37.9,-0.9875,0.0124,-0.0105,-0.0138,-0.0118,0.01,0.0031,0.2043,,,,,,,,
01:37.9,-0.9875,0.0125,-0.0105,-0.0138,-0.0118,0.01,0.0031,0.2043,,,,,,,,
01:37.9,-0.9878,0.0124,-0.0094,-0.0138,-0.0118,0.01,0.0031,0.2043,,,,,,,,
01:37.9,-0.9883,0.0121,-0.0105,-0.0138,-0.0118,0.01,0.0031,0.2043,,,,,,,,
01:37.9,-0.9874,0.0117,-0.0094,-0.0128,-0.0107,0.01,0.0031,0.2043,,,,,,,,
01:37.9,-0.9879,0.0126,-0.0084,-0.0138,-0.0118,0.0101,0.0031,0.2043,,,,,,,,
01:37.9,-0.9875,0.012,-0.0105,-0.016,-0.0118,0.01,0.0031,0.2043,,,,,,,,
01:38.0,-0.9872,0.0125,-0.0094,-0.0128,-0.0097,0.01,0.0031,0.2043,,,,,,,,
01:38.0,-0.987,0.0127,-0.0083,-0.0149,-0.0129,0.01,0.0031,0.2043,,,,,,,,
01:38.0,-0.9874,0.013,-0.0094,-0.0138,-0.0107,0.01,0.0031,0.2043,,,,,,,,
01:38.0,-0.9872,0.0125,-0.0094,-0.016,-0.0107,0.01,0.0031,0.2043,,,,,,,,
01:38.0,-0.9867,0.0128,-0.0094,-0.0128,-0.0118,0.01,0.0031,0.2043,,,,,,,,
01:38.0,-0.987,0.0133,-0.0073,-0.0149,-0.0118,0.01,0.0031,0.2043,,,,,,,,
01:38.0,-0.987,0.013,-0.0115,-0.0149,-0.0107,0.01,0.0031,0.2043,,,,,,,,
01:38.0,-0.9866,0.0129,-0.0094,-0.0149,-0.0118,0.01,0.0031,0.2043,,,,,,,,
01:38.0,-0.9869,0.0134,-0.0094,-0.0128,-0.0118,0.01,0.0031,0.2043,,,,,,,,
01:38.0,-0.9867,0.0131,-0.0083,-0.0159,-0.0129,0.01,0.0031,0.2043,,,,,,,,
01:38.1,-0.9863,0.0132,-0.0073,-0.0138,-0.0118,0.01,0.0031,0.2043,,,,,,,,
01:38.1,-0.9869,0.0136,-0.0105,-0.0138,-0.0118,0.01,0.0031,0.2043,,,,,,,,
01:38.1,-0.9863,0.013,-0.0094,-0.0138,-0.0118,0.01,0.0031,0.2043,,,,,,,,
01:38.1,-0.9867,0.0137,-0.0094,-0.0149,-0.0118,0.01,0.0031,0.2043,,,,,,,,
01:38.1,-0.9865,0.0133,-0.0083,-0.0159,-0.0118,0.01,0.0031,0.2043,,,,,,,,
01:38.1,-0.9864,0.0135,-0.0105,-0.0138,-0.0129,0.01,0.0031,0.2043,,,,,,,,
01:38.1,-0.9871,0.0136,-0.0083,-0.0159,-0.0129,0.01,0.0031,0.2043,,,,,,,,
01:38.1,-0.988,0.0128,-0.0105,-0.0138,-0.0118,0.01,0.0031,0.2043,,,,,,,,
01:38.1,-0.9878,0.012,-0.0084,-0.0149,-0.0107,0.01,0.0031,0.2043,,,,,,,,
01:38.1,-0.9877,0.0121,-0.0105,-0.016,-0.0118,0.01,0.0031,0.2043,,,,,,,,
01:38.2,-0.9867,0.0123,-0.0105,-0.0149,-0.0118,0.01,0.0031,0.2043,,,,,,,,
01:38.2,-0.9872,0.0132,-0.0094,-0.0128,-0.0118,0.01,0.0031,0.2043,,,,,,,,
01:38.2,-0.987,0.0127,-0.0094,-0.0149,-0.0118,0.01,0.0031,0.2043,,,,,,,,
01:38.2,-0.9867,0.013,-0.0094,-0.0127,-0.0139,0.01,0.0031,0.2043,,,,,,,,
01:38.2,-0.9862,0.0132,-0.0094,-0.0138,-0.0118,0.01,0.0031,0.2043,,,,,,,,
01:38.2,-0.9868,0.0137,-0.0094,-0.0106,-0.0107,0.01,0.0031,0.2043,,,,,,,,
01:38.2,-0.9859,0.0132,-0.0105,-0.0149,-0.0129,0.01,0.0031,0.2043,,,,,,,,
01:38.2,-0.9869,0.014,-0.0084,-0.0138,-0.0129,0.01,0.0031,0.2043,,,,,,,,
01:38.2,-0.9871,0.013,-0.0084,-0.0138,-0.0118,0.01,0.0031,0.2043,,,,,,,,
01:38.2,-0.9866,0.0128,-0.0094,-0.0128,-0.0118,0.0101,0.0031,0.2043,,,,,,,,
01:38.3,-0.9863,0.0133,-0.0094,-0.0149,-0.0129,0.0101,0.0031,0.2043,,,,,,,,
01:38.3,-0.9861,0.0137,-0.0105,-0.0149,-0.0118,0.0101,0.0031,0.2043,,,,,,,,
01:38.3,-0.9859,0.0138,-0.0105,-0.0138,-0.0118,0.0101,0.0031,0.2043,,,,,,,,
01:38.3,-0.9859,0.014,-0.0084,-0.0138,-0.0107,0.0101,0.0031,0.2043,,,,,,,,
01:38.3,-0.9871,0.014,-0.0094,-0.0138,-0.0107,0.0101,0.0031,0.2043,,,,,,,,
01:38.3,-0.9872,0.0128,-0.0083,-0.0159,-0.0118,0.0101,0.0031,0.2043,,,,,,,,
01:38.3,-0.9861,0.0127,-0.0084,-0.0128,-0.0118,0.0101,0.0031,0.2043,,,,,,,,
01:38.3,-0.9859,0.0138,-0.0105,-0.0149,-0.0129,0.0101,0.0031,0.2043,,,,,,,,
01:38.3,-0.9879,0.014,-0.0105,-0.0138,-0.0107,0.0101,0.0031,0.2043,,,,,,,,
01:38.3,-0.9866,0.012,-0.0116,-0.0138,-0.0118,0.0101,0.0031,0.2043,,,,,,,,
01:38.4,-0.9869,0.0133,-0.0105,-0.0138,-0.0118,0.0101,0.0031,0.2043,,,,,,,,
01:38.4,-0.9876,0.013,-0.0094,-0.0149,-0.0118,0.0101,0.0031,0.2044,,,,,,,,
01:38.4,-0.9866,0.0123,-0.0073,-0.0149,-0.0118,0.0101,0.0031,0.2044,,,,,,,,
01:38.4,-0.9867,0.0133,-0.0094,-0.016,-0.0118,0.0101,0.0031,0.2044,,,,,,,,
01:38.4,-0.9867,0.0133,-0.0084,-0.0128,-0.0107,0.0101,0.0031,0.2044,,,,,,,,
01:38.4,-0.9863,0.0133,-0.0084,-0.0138,-0.0129,0.0101,0.0031,0.2044,,,,,,,,
01:38.4,-0.9876,0.0137,-0.0105,-0.0149,-0.0129,0.0101,0.0031,0.2044,,,,,,,,
01:38.4,-0.9868,0.0123,-0.0094,-0.0149,-0.0118,0.0101,0.0031,0.2044,,,,,,,,
01:38.4,-0.9869,0.0132,-0.0084,-0.0138,-0.0118,0.0101,0.0031,0.2044,,,,,,,,
01:38.4,-0.9873,0.0131,-0.0084,-0.0149,-0.0118,0.0101,0.0031,0.2044,,,,,,,,
01:38.5,-0.9865,0.0126,-0.0083,-0.0138,-0.0139,0.0101,0.0031,0.2043,,,,,,,,
01:38.5,-0.9861,0.0135,-0.0084,-0.0149,-0.0118,0.0101,0.0031,0.2043,,,,,,,,
01:38.5,-0.987,0.0139,-0.0084,-0.0138,-0.0129,0.0101,0.0032,0.2043,,,,,,,,
01:38.5,-0.9869,0.0129,-0.0094,-0.0149,-0.0107,0.0101,0.0032,0.2043,,,,,,,,
01:38.5,-0.9855,0.0131,-0.0094,-0.0149,-0.0118,0.0101,0.0031,0.2043,,,,,,,,
01:38.5,-0.9878,0.0145,-0.0094,-0.016,-0.0118,0.01,0.0032,0.2043,,,,,,,,
01:38.5,-0.9873,0.0121,-0.0094,-0.0138,-0.0129,0.01,0.0032,0.2043,,,,,,,,
01:38.5,-0.9858,0.0126,-0.0094,-0.0159,-0.0139,0.01,0.0032,0.2043,,,,,,,,
01:38.5,-0.9869,0.0141,-0.0084,-0.0138,-0.0129,0.01,0.0032,0.2043,,,,,,,,
01:38.5,-0.9872,0.013,-0.0094,-0.0149,-0.0129,0.01,0.0032,0.2043,,,,,,,,
01:38.6,-0.9872,0.0127,-0.0105,-0.0149,-0.0129,0.01,0.0032,0.2043,,,,,,,,
01:38.6,-0.9867,0.0127,-0.0094,-0.0138,-0.0129,0.01,0.0032,0.2043,,,,,,,,
01:38.6,-0.9871,0.0133,-0.0094,-0.0128,-0.0129,0.01,0.0032,0.2043,,,,,,,,
01:38.6,-0.9867,0.0129,-0.0084,-0.0149,-0.0118,0.01,0.0032,0.2043,,,,,,,,
01:38.6,-0.9871,0.0132,-0.0083,-0.0159,-0.0118,0.01,0.0032,0.2043,,,,,,,,
01:38.6,-0.9877,0.0128,-0.0084,-0.0138,-0.0118,0.01,0.0032,0.2043,,,,,,,,
01:38.6,-0.9869,0.0122,-0.0094,-0.0138,-0.0129,0.01,0.0032,0.2043,,,,,,,,
01:38.6,-0.987,0.0131,-0.0105,-0.0128,-0.0107,0.01,0.0032,0.2043,,,,,,,,
01:38.6,-0.9872,0.013,-0.0094,-0.0149,-0.0097,0.01,0.0032,0.2043,,,,,,,,
01:38.6,-0.9868,0.0128,-0.0105,-0.0149,-0.0139,0.01,0.0032,0.2043,,,,,,,,
01:38.7,-0.9872,0.0131,-0.0094,-0.0128,-0.0107,0.01,0.0032,0.2043,,,,,,,,
01:38.7,-0.9877,0.0128,-0.0084,-0.0149,-0.0107,0.01,0.0032,0.2043,,,,,,,,
01:38.7,-0.9874,0.0122,-0.0084,-0.0138,-0.0129,0.01,0.0032,0.2043,,,,,,,,
01:38.7,-0.9879,0.0125,-0.0094,-0.0128,-0.0107,0.01,0.0032,0.2043,,,,,,,,
01:38.7,-0.9866,0.0121,-0.0084,-0.0138,-0.0118,0.01,0.0032,0.2043,,,,,,,,
01:38.7,-0.9862,0.0134,-0.0105,-0.0138,-0.0129,0.01,0.0032,0.2043,,,,,,,,
01:38.7,-0.9863,0.0137,-0.0094,-0.016,-0.0107,0.01,0.0032,0.2043,,,,,,,,
01:38.7,-0.9872,0.0137,-0.0094,-0.016,-0.0107,0.01,0.0032,0.2044,,,,,,,,
01:38.7,-0.9878,0.0127,-0.0094,-0.0138,-0.0118,0.01,0.0032,0.2044,,,,,,,,
01:38.7,-0.9872,0.0121,-0.0094,-0.0128,-0.0118,0.01,0.0032,0.2044,,,,,,,,
01:38.8,-0.9873,0.0127,-0.0094,-0.016,-0.0118,0.01,0.0032,0.2044,,,,,,,,
01:38.8,-0.9873,0.0126,-0.0105,-0.0149,-0.0118,0.01,0.0032,0.2044,,,,,,,,
01:38.8,-0.988,0.0126,-0.0116,-0.0117,-0.0129,0.01,0.0032,0.2044,,,,,,,,
01:38.8,-0.9868,0.0119,-0.0105,-0.0138,-0.0118,0.01,0.0032,0.2044,,,,,,,,
01:38.8,-0.9868,0.0131,-0.0094,-0.016,-0.0118,0.01,0.0032,0.2044,,,,,,,,
01:38.8,-0.9871,0.0131,-0.0094,-0.016,-0.0107,0.01,0.0032,0.2044,,,,,,,,
01:38.8,-0.9871,0.0128,-0.0116,-0.0128,-0.0118,0.01,0.0032,0.2044,,,,,,,,
01:38.8,-0.987,0.0129,-0.0094,-0.0159,-0.0129,0.01,0.0032,0.2043,,,,,,,,
01:38.8,-0.988,0.013,-0.0105,-0.0149,-0.0118,0.01,0.0032,0.2043,,,,,,,,
01:38.8,-0.9868,0.012,-0.0094,-0.0149,-0.0118,0.01,0.0032,0.2043,,,,,,,,
01:38.9,-0.9858,0.0131,-0.0094,-0.0149,-0.0118,0.0099,0.0032,0.2043,,,,,,,,
01:38.9,-0.9874,0.0142,-0.0105,-0.0138,-0.0139,0.0099,0.0032,0.2043,,,,,,,,
01:38.9,-0.9872,0.0125,-0.0094,-0.0149,-0.0118,0.0099,0.0032,0.2043,,,,,,,,
01:38.9,-0.9859,0.0127,-0.0084,-0.0149,-0.0118,0.0099,0.0032,0.2043,,,,,,,,
01:38.9,-0.9874,0.0141,-0.0073,-0.0149,-0.0118,0.0099,0.0032,0.2043,,,,,,,,
01:38.9,-0.9879,0.0125,-0.0094,-0.016,-0.0107,0.0099,0.0032,0.2043,,,,,,,,
01:38.9,-0.9871,0.012,-0.0084,-0.0149,-0.0118,0.0099,0.0032,0.2043,,,,,,,,
01:38.9,-0.9867,0.0129,-0.0094,-0.0128,-0.0118,0.0099,0.0032,0.2043,,,,,,,,
01:38.9,-0.9879,0.0133,-0.0094,-0.0149,-0.0118,0.0099,0.0032,0.2043,,,,,,,,
01:38.9,-0.9866,0.012,-0.0094,-0.0149,-0.0129,0.0099,0.0032,0.2043,,,,,,,,
01:38.9,-0.9862,0.0134,-0.0105,-0.0149,-0.0107,0.0099,0.0032,0.2043,,,,,,,,
01:39.0,-0.9872,0.0137,-0.0105,-0.0138,-0.0118,0.0099,0.0032,0.2043,,,,,,,,
01:39.0,-0.9866,0.0127,-0.0073,-0.0149,-0.0128,0.0099,0.0032,0.2043,,,,,,,,
01:39.0,-0.9868,0.0134,-0.0094,-0.0138,-0.0129,0.0099,0.0032,0.2043,,,,,,,,
01:39.0,-0.9879,0.0132,-0.0073,-0.0149,-0.0118,0.0099,0.0032,0.2043,,,,,,,,
01:39.0,-0.9876,0.012,-0.0105,-0.016,-0.0129,0.0099,0.0032,0.2043,,,,,,,,
01:39.0,-0.9866,0.0123,-0.0094,-0.0138,-0.0129,0.0099,0.0032,0.2043,,,,,,,,
01:39.0,-0.9866,0.0134,-0.0094,-0.0138,-0.0118,0.0099,0.0032,0.2043,,,,,,,,
01:39.0,-0.9872,0.0134,-0.0105,-0.016,-0.0129,0.0099,0.0032,0.2043,,,,,,,,
01:39.0,-0.9875,0.0127,-0.0105,-0.0149,-0.0107,0.0099,0.0032,0.2043,,,,,,,,
01:39.0,-0.9859,0.0124,-0.0084,-0.0149,-0.0118,0.0099,0.0032,0.2043,,,,,,,,
01:39.1,-0.9865,0.014,-0.0094,-0.0149,-0.0129,0.0098,0.0032,0.2043,,,,,,,,
01:39.1,-0.9872,0.0135,-0.0094,-0.0128,-0.0118,0.0098,0.0032,0.2043,,,,,,,,
01:39.1,-0.9864,0.0127,-0.0084,-0.0138,-0.0118,0.0098,0.0032,0.2043,,,,,,,,
01:39.1,-0.9864,0.0135,-0.0084,-0.0149,-0.0118,0.0098,0.0032,0.2043,,,,,,,,
01:39.1,-0.9866,0.0135,-0.0094,-0.0149,-0.0129,0.0098,0.0032,0.2043,,,,,,,,
01:39.1,-0.9864,0.0133,-0.0105,-0.0149,-0.0129,0.0098,0.0032,0.2043,,,,,,,,
01:39.1,-0.9865,0.0136,-0.0094,-0.0128,-0.0118,0.0098,0.0032,0.2043,,,,,,,,
01:39.1,-0.9873,0.0135,-0.0094,-0.0138,-0.0118,0.0098,0.0032,0.2043,,,,,,,,
01:39.1,-0.987,0.0127,-0.0084,-0.0138,-0.0107,0.0098,0.0032,0.2043,,,,,,,,
01:39.1,-0.9865,0.013,-0.0094,-0.0149,-0.0118,0.0098,0.0032,0.2043,,,,,,,,
01:39.2,-0.9879,0.0135,-0.0105,-0.0138,-0.0118,0.0098,0.0032,0.2043,,,,,,,,
01:39.2,-0.9872,0.012,-0.0094,-0.0128,-0.0118,0.0098,0.0032,0.2043,,,,,,,,
01:39.2,-0.9867,0.0128,-0.0094,-0.0138,-0.0129,0.0098,0.0032,0.2043,,,,,,,,
01:39.2,-0.9872,0.0133,-0.0094,-0.0149,-0.0107,0.0098,0.0032,0.2043,,,,,,,,
01:39.2,-0.9866,0.0127,-0.0094,-0.0149,-0.0107,0.0098,0.0032,0.2043,,,,,,,,
01:39.2,-0.9865,0.0133,-0.0094,-0.0149,-0.0129,0.0098,0.0032,0.2043,,,,,,,,
01:39.2,-0.9873,0.0134,-0.0094,-0.0138,-0.0118,0.0098,0.0032,0.2043,,,,,,,,
01:39.2,-0.9881,0.0126,-0.0105,-0.0149,-0.0118,0.0098,0.0032,0.2043,,,,,,,,
01:39.2,-0.9869,0.0119,-0.0094,-0.0138,-0.0107,0.0098,0.0032,0.2043,,,,,,,,
01:39.2,-0.9855,0.013,-0.0084,-0.0149,-0.0118,0.0098,0.0032,0.2043,,,,,,,,
01:39.3,-0.987,0.0145,-0.0094,-0.0138,-0.0107,0.0098,0.0032,0.2043,,,,,,,,
01:39.3,-0.9862,0.0137,-0.0115,-0.016,-0.0118,0.0098,0.0032,0.2043,,,,,,,,
01:39.3,-0.9872,0.0137,-0.0083,-0.0149,-0.0129,0.0098,0.0032,0.2043,,,,,,,,
01:39.3,-0.9872,0.0127,-0.0094,-0.0149,-0.0139,0.0098,0.0032,0.2043,,,,,,,,
01:39.3,-0.9857,0.0127,-0.0105,-0.0138,-0.0118,0.0097,0.0032,0.2043,,,,,,,,
01:39.3,-0.9868,0.0143,-0.0094,-0.0149,-0.0129,0.0097,0.0032,0.2043,,,,,,,,
01:39.3,-0.9866,0.0131,-0.0105,-0.0138,-0.0118,0.0097,0.0032,0.2043,,,,,,,,
01:39.3,-0.9874,0.0134,-0.0105,-0.0149,-0.0129,0.0097,0.0032,0.2043,,,,,,,,
01:39.3,-0.9856,0.0126,-0.0094,-0.0138,-0.0129,0.0097,0.0032,0.2043,,,,,,,,
01:39.3,-0.9852,0.0143,-0.0094,-0.0149,-0.0118,0.0097,0.0032,0.2043,,,,,,,,
01:39.4,-0.9852,0.0148,-0.0083,-0.016,-0.0107,0.0097,0.0032,0.2043,,,,,,,,
01:39.4,-0.9867,0.0148,-0.0105,-0.0149,-0.0118,0.0097,0.0032,0.2043,,,,,,,,
01:39.4,-0.9867,0.0132,-0.0094,-0.0138,-0.0118,0.0097,0.0032,0.2043,,,,,,,,
01:39.4,-0.9851,0.0132,-0.0094,-0.0138,-0.0118,0.0097,0.0032,0.2043,,,,,,,,
01:39.4,-0.9773,0.0149,-0.0094,-0.0138,-0.0118,0.0097,0.0032,0.2043,,,,,,,,
01:39.4,-0.9472,0.0226,-0.0083,-0.0159,-0.0129,0.0097,0.0032,0.2043,,,,,,,,
01:39.4,-0.9272,0.0528,-0.0105,-0.016,-0.0118,0.0097,0.0032,0.2043,,,,,,,,
01:39.4,-0.9162,0.0728,-0.0084,-0.0138,-0.0118,0.0097,0.0032,0.2043,,,,,,,,
01:39.4,-0.9065,0.0838,-0.0083,-0.017,-0.0118,0.0097,0.0032,0.2043,,,,,,,,
01:39.4,-0.8962,0.0934,-0.0094,-0.017,-0.0107,0.0097,0.0032,0.2043,,,,,,,,
01:39.5,-0.8877,0.1037,-0.0094,-0.0149,-0.0118,0.0096,0.0032,0.2043,,,,,,,,
01:39.5,-0.8853,0.1123,-0.0094,-0.0128,-0.0107,0.0096,0.0032,0.2043,,,,,,,,
01:39.5,-0.886,0.1146,-0.0115,-0.0138,-0.0129,0.0097,0.0032,0.2043,,,,,,,,
01:39.5,-0.8847,0.114,-0.0105,-0.0138,-0.0118,0.0097,0.0032,0.2043,,,,,,,,
01:39.5,-0.883,0.1153,-0.0084,-0.0149,-0.0118,0.0097,0.0032,0.2043,,,,,,,,
01:39.5,-0.8855,0.117,-0.0094,-0.0128,-0.0118,0.0097,0.0032,0.2043,,,,,,,,
01:39.5,-0.89,0.1145,-0.0105,-0.0149,-0.0118,0.0097,0.0032,0.2043,,,,,,,,
01:39.5,-0.8964,0.1099,-0.0084,-0.0149,-0.0107,0.0096,0.0032,0.2043,,,,,,,,
01:39.5,-0.9022,0.1035,-0.0094,-0.0138,-0.0118,0.0097,0.0032,0.2043,,,,,,,,
01:39.5,-0.9124,0.0978,-0.0105,-0.016,-0.0118,0.0096,0.0032,0.2043,,,,,,,,
01:39.6,-0.9204,0.0875,-0.0105,-0.0128,-0.0129,0.0097,0.0031,0.2043,,,,,,,,
01:39.6,-0.9258,0.0795,-0.0094,-0.0149,-0.0118,0.0097,0.0032,0.2043,,,,,,,,
01:39.6,-0.9367,0.0742,-0.0084,-0.0138,-0.0118,0.0097,0.0032,0.2043,,,,,,,,
01:39.6,-0.9461,0.0633,-0.0084,-0.0138,-0.0129,0.0097,0.0032,0.2043,,,,,,,,
01:39.6,-0.9545,0.0538,-0.0094,-0.0138,-0.0107,0.0097,0.0032,0.2043,,,,,,,,
01:39.6,-0.9625,0.0454,-0.0083,-0.0149,-0.0129,0.0097,0.0032,0.2043,,,,,,,,
01:39.6,-0.9704,0.0374,-0.0105,-0.0149,-0.0118,0.0097,0.0032,0.2043,,,,,,,,
01:39.6,-0.9763,0.0295,-0.0084,-0.0138,-0.0118,0.0097,0.0032,0.2043,,,,,,,,
01:39.6,-0.9786,0.0237,-0.0094,-0.0159,-0.0129,0.0097,0.0032,0.2043,,,,,,,,
01:39.6,-0.9797,0.0214,-0.0094,-0.0138,-0.0129,0.0097,0.0032,0.2043,,,,,,,,
01:39.7,-0.9807,0.0202,-0.0084,-0.0149,-0.0118,0.0097,0.0032,0.2043,,,,,,,,
01:39.7,-0.9796,0.0192,-0.0094,-0.0138,-0.0118,0.0097,0.0032,0.2043,,,,,,,,
01:39.7,-0.9758,0.0203,-0.0084,-0.0149,-0.0118,0.0097,0.0032,0.2043,,,,,,,,
01:39.7,-0.9721,0.0241,-0.0094,-0.0149,-0.0118,0.0097,0.0032,0.2043,,,,,,,,
01:39.7,-0.969,0.0279,-0.0094,-0.016,-0.0118,0.0097,0.0032,0.2043,,,,,,,,
01:39.7,-0.9616,0.031,-0.0083,-0.016,-0.0107,0.0096,0.0032,0.2044,,,,,,,,
01:39.7,-0.951,0.0384,-0.0094,-0.0149,-0.0118,0.0096,0.0032,0.2044,,,,,,,,
01:39.7,-0.9428,0.0489,-0.0083,-0.0159,-0.0118,0.0096,0.0032,0.2044,,,,,,,,
01:39.7,-0.9359,0.0572,-0.0084,-0.0149,-0.0118,0.0096,0.0032,0.2044,,,,,,,,
01:39.7,-0.9268,0.064,-0.0105,-0.0149,-0.0129,0.0096,0.0032,0.2044,,,,,,,,
01:39.8,-0.9155,0.0731,-0.0094,-0.0138,-0.0107,0.0096,0.0032,0.2044,,,,,,,,
01:39.8,-0.9067,0.0844,-0.0084,-0.016,-0.0097,0.0096,0.0032,0.2044,,,,,,,,
01:39.8,-0.9012,0.0933,-0.0094,-0.0138,-0.0118,0.0096,0.0032,0.2044,,,,,,,,
01:39.8,-0.8944,0.0988,-0.0105,-0.0138,-0.0129,0.0096,0.0032,0.2044,,,,,,,,
01:39.8,-0.8838,0.1056,-0.0073,-0.0127,-0.0118,0.0096,0.0032,0.2044,,,,,,,,
01:39.8,-0.8776,0.1162,-0.0094,-0.0149,-0.0118,0.0096,0.0032,0.2044,,,,,,,,
01:39.8,-0.876,0.1223,-0.0105,-0.0149,-0.0107,0.0096,0.0032,0.2044,,,,,,,,
