Timestamp,accelX(g),accelY(g),accelZ(g),accelUserX(g),accelUserY(g),accelUserZ(g),gyroX(rad/s),gyroY(rad/s),gyroZ(rad/s),Roll(rads),Pitch(rads),Yaw(rads)
20-Jan-2019 13:01:24.329, 0.0025,-0.0017,-0.9861,-0.0166,-0.0022, 0.0150,-0.0051,-0.0244,-0.0107, 0.0202, 0.0016, 0.2042
20-Jan-2019 13:01:24.331, 0.0025,-0.0017,-0.9861,-0.0166,-0.0022, 0.0150,-0.0051,-0.0244,-0.0107, 0.0202, 0.0016, 0.2042
20-Jan-2019 13:01:24.332, 0.0025,-0.0017,-0.9861,-0.0166,-0.0022, 0.0150,-0.0051,-0.0244,-0.0107, 0.0202, 0.0016, 0.2042
20-Jan-2019 13:01:24.333, 0.0025,-0.0017,-0.9861,-0.0166,-0.0022, 0.0150,-0.0051,-0.0244,-0.0107, 0.0202, 0.0016, 0.2042
20-Jan-2019 13:01:24.334, 0.0025,-0.0017,-0.9861,-0.0166,-0.0022, 0.0150,-0.0051,-0.0244,-0.0107, 0.0202, 0.0016, 0.2042
20-Jan-2019 13:01:24.335, 0.0025,-0.0017,-0.9861,-0.0176,-0.0001, 0.0137,-0.0073,-0.0181,-0.0107, 0.0202, 0.0016, 0.2042
20-Jan-2019 13:01:24.336, 0.0025,-0.0017,-0.9861,-0.0176,-0.0001, 0.0137,-0.0073,-0.0181,-0.0107, 0.0202, 0.0016, 0.2042
20-Jan-2019 13:01:24.337, 0.0025,-0.0017,-0.9861,-0.0176,-0.0001, 0.0137,-0.0073,-0.0181,-0.0107, 0.0202, 0.0016, 0.2042
20-Jan-2019 13:01:24.339, 0.0022,-0.0030,-0.9886,-0.0176,-0.0001, 0.0137,-0.0073,-0.0181,-0.0107, 0.0202, 0.0016, 0.2042
20-Jan-2019 13:01:24.349, 0.0046,-0.0047,-0.9875,-0.0180,-0.0014, 0.0111,-0.0084,-0.0127,-0.0128, 0.0201, 0.0016, 0.2042
20-Jan-2019 13:01:24.358, 0.0053,-0.0048,-0.9859,-0.0155,-0.0031, 0.0122,-0.0094,-0.0106,-0.0128, 0.0201, 0.0016, 0.2042
20-Jan-2019 13:01:24.369, 0.0049,-0.0037,-0.9863,-0.0148,-0.0032, 0.0138,-0.0094,-0.0149,-0.0118, 0.0201, 0.0016, 0.2042
20-Jan-2019 13:01:24.378, 0.0032,-0.0038,-0.9877,-0.0152,-0.0021, 0.0135,-0.0105,-0.0149,-0.0118, 0.0201, 0.0016, 0.2042
20-Jan-2019 13:01:24.388, 0.0011,-0.0060,-0.9884,-0.0169,-0.0022, 0.0121,-0.0105,-0.0138,-0.0129, 0.0201, 0.0016, 0.2042
20-Jan-2019 13:01:24.398,-0.0004,-0.0072,-0.9867,-0.0189,-0.0044, 0.0114,-0.0083,-0.0170,-0.0118, 0.0200, 0.0016, 0.2042
20-Jan-2019 13:01:24.408,-0.0005,-0.0075,-0.9889,-0.0204,-0.0055, 0.0131,-0.0073,-0.0149,-0.0128, 0.0200, 0.0016, 0.2041
20-Jan-2019 13:01:24.418, 0.0033,-0.0061,-0.9876,-0.0205,-0.0059, 0.0109,-0.0094,-0.0138,-0.0107, 0.0200, 0.0016, 0.2042
20-Jan-2019 13:01:24.428, 0.0017,-0.0018,-0.9841,-0.0168,-0.0045, 0.0122,-0.0084,-0.0128,-0.0118, 0.0200, 0.0016, 0.2042
20-Jan-2019 13:01:24.438,-0.0014,-0.0005,-0.9876,-0.0183,-0.0002, 0.0157,-0.0094,-0.0128,-0.0118, 0.0200, 0.0016, 0.2042
20-Jan-2019 13:01:24.448, 0.0035,-0.0027,-0.9886,-0.0214, 0.0011, 0.0122,-0.0083,-0.0159,-0.0118, 0.0200, 0.0016, 0.2042
20-Jan-2019 13:01:24.458, 0.0055,-0.0041,-0.9865,-0.0165,-0.0011, 0.0112,-0.0094,-0.0138,-0.0129, 0.0200, 0.0016, 0.2042
20-Jan-2019 13:01:24.468, 0.0055,-0.0061,-0.9857,-0.0145,-0.0024, 0.0133,-0.0084,-0.0149,-0.0118, 0.0200, 0.0017, 0.2042
20-Jan-2019 13:01:24.478, 0.0057,-0.0076,-0.9855,-0.0145,-0.0045, 0.0141,-0.0094,-0.0159,-0.0129, 0.0200, 0.0017, 0.2041
20-Jan-2019 13:01:24.488, 0.0023,-0.0074,-0.9878,-0.0142,-0.0059, 0.0143,-0.0094,-0.0160,-0.0118, 0.0200, 0.0017, 0.2041
20-Jan-2019 13:01:24.498, 0.0006,-0.0046,-0.9869,-0.0176,-0.0057, 0.0120,-0.0083,-0.0160,-0.0107, 0.0199, 0.0017, 0.2042
20-Jan-2019 13:01:24.508, 0.0012,-0.0031,-0.9869,-0.0193,-0.0029, 0.0129,-0.0094,-0.0149,-0.0107, 0.0199, 0.0017, 0.2042
20-Jan-2019 13:01:24.518, 0.0015,-0.0045,-0.9877,-0.0187,-0.0014, 0.0129,-0.0073,-0.0159,-0.0107, 0.0199, 0.0017, 0.2042
20-Jan-2019 13:01:24.528, 0.0047,-0.0039,-0.9863,-0.0184,-0.0028, 0.0121,-0.0083,-0.0159,-0.0118, 0.0199, 0.0017, 0.2042
20-Jan-2019 13:01:24.538, 0.0041,-0.0025,-0.9855,-0.0151,-0.0022, 0.0135,-0.0083,-0.0170,-0.0129, 0.0198, 0.0017, 0.2042
20-Jan-2019 13:01:24.548, 0.0014,-0.0034,-0.9891,-0.0157,-0.0008, 0.0143,-0.0084,-0.0149,-0.0118, 0.0198, 0.0017, 0.2042
20-Jan-2019 13:01:24.558, 0.0043,-0.0069,-0.9864,-0.0184,-0.0017, 0.0107,-0.0084,-0.0149,-0.0118, 0.0198, 0.0017, 0.2042
20-Jan-2019 13:01:24.568, 0.0050,-0.0082,-0.9858,-0.0155,-0.0051, 0.0134,-0.0094,-0.0138,-0.0129, 0.0198, 0.0017, 0.2042
20-Jan-2019 13:01:24.577, 0.0023,-0.0064,-0.9882,-0.0148,-0.0065, 0.0140,-0.0084,-0.0149,-0.0118, 0.0198, 0.0017, 0.2042
20-Jan-2019 13:01:24.587, 0.0006,-0.0047,-0.9869,-0.0175,-0.0046, 0.0116,-0.0105,-0.0149,-0.0097, 0.0198, 0.0017, 0.2042
20-Jan-2019 13:01:24.598, 0.0003,-0.0005,-0.9874,-0.0192,-0.0030, 0.0129,-0.0094,-0.0149,-0.0118, 0.0197, 0.0017, 0.2042
20-Jan-2019 13:01:24.607, 0.0032,-0.0004,-0.9864,-0.0194, 0.0012, 0.0124,-0.0084,-0.0117,-0.0118, 0.0197, 0.0018, 0.2042
20-Jan-2019 13:01:24.619, 0.0040,-0.0024,-0.9856,-0.0158,-0.0006, 0.0142,-0.0094,-0.0128,-0.0107, 0.0197, 0.0018, 0.2042
20-Jan-2019 13:01:24.627, 0.0050,-0.0065,-0.9871,-0.0158,-0.0006, 0.0142,-0.0083,-0.0159,-0.0118, 0.0197, 0.0018, 0.2042
20-Jan-2019 13:01:24.637, 0.0047,-0.0086,-0.9865,-0.0147,-0.0047, 0.0127,-0.0083,-0.0159,-0.0129, 0.0197, 0.0018, 0.2042
20-Jan-2019 13:01:24.647, 0.0029,-0.0084,-0.9867,-0.0150,-0.0068, 0.0133,-0.0073,-0.0159,-0.0128, 0.0197, 0.0018, 0.2042
20-Jan-2019 13:01:24.657, 0.0014,-0.0056,-0.9865,-0.0168,-0.0066, 0.0131,-0.0094,-0.0149,-0.0107, 0.0197, 0.0018, 0.2042
20-Jan-2019 13:01:24.667, 0.0017,-0.0034,-0.9866,-0.0182,-0.0038, 0.0133,-0.0073,-0.0159,-0.0118, 0.0197, 0.0018, 0.2041
20-Jan-2019 13:01:24.677, 0.0030,-0.0022,-0.9882,-0.0179,-0.0016, 0.0132,-0.0084,-0.0138,-0.0118, 0.0197, 0.0018, 0.2041
20-Jan-2019 13:01:24.687, 0.0018,-0.0013,-0.9862,-0.0167,-0.0004, 0.0116,-0.0083,-0.0159,-0.0139, 0.0196, 0.0018, 0.2041
20-Jan-2019 13:01:24.697, 0.0014,-0.0009,-0.9848,-0.0178, 0.0005, 0.0136,-0.0084,-0.0149,-0.0107, 0.0196, 0.0018, 0.2042
20-Jan-2019 13:01:24.707, 0.0016,-0.0057,-0.9882,-0.0182, 0.0009, 0.0150,-0.0084,-0.0127,-0.0128, 0.0196, 0.0018, 0.2042
20-Jan-2019 13:01:24.718, 0.0041,-0.0108,-0.9882,-0.0179,-0.0039, 0.0116,-0.0105,-0.0149,-0.0129, 0.0196, 0.0018, 0.2041
20-Jan-2019 13:01:24.726, 0.0048,-0.0093,-0.9869,-0.0155,-0.0089, 0.0116,-0.0094,-0.0149,-0.0118, 0.0196, 0.0018, 0.2041
20-Jan-2019 13:01:24.736, 0.0020,-0.0041,-0.9849,-0.0148,-0.0074, 0.0129,-0.0094,-0.0149,-0.0129, 0.0196, 0.0019, 0.2041
20-Jan-2019 13:01:24.746,-0.0000,-0.0022,-0.9880,-0.0176,-0.0022, 0.0149,-0.0094,-0.0149,-0.0139, 0.0196, 0.0019, 0.2041
20-Jan-2019 13:01:24.756, 0.0005,-0.0023,-0.9882,-0.0196,-0.0003, 0.0118,-0.0094,-0.0138,-0.0097, 0.0196, 0.0019, 0.2041
20-Jan-2019 13:01:24.767, 0.0019,-0.0017,-0.9880,-0.0190,-0.0005, 0.0116,-0.0105,-0.0128,-0.0118, 0.0195, 0.0019, 0.2041
20-Jan-2019 13:01:24.776, 0.0048,-0.0035,-0.9839,-0.0176, 0.0002, 0.0118,-0.0084,-0.0138,-0.0129, 0.0195, 0.0019, 0.2041
20-Jan-2019 13:01:24.786, 0.0051,-0.0061,-0.9880,-0.0147,-0.0016, 0.0159,-0.0094,-0.0149,-0.0118, 0.0195, 0.0019, 0.2041
20-Jan-2019 13:01:24.796, 0.0017,-0.0050,-0.9867,-0.0144,-0.0043, 0.0118,-0.0094,-0.0138,-0.0118, 0.0195, 0.0019, 0.2041
20-Jan-2019 13:01:24.806, 0.0019,-0.0037,-0.9864,-0.0178,-0.0031, 0.0131,-0.0094,-0.0128,-0.0118, 0.0195, 0.0019, 0.2041
20-Jan-2019 13:01:24.817, 0.0036,-0.0069,-0.9876,-0.0176,-0.0018, 0.0134,-0.0105,-0.0149,-0.0107, 0.0195, 0.0019, 0.2042
20-Jan-2019 13:01:24.826, 0.0043,-0.0061,-0.9863,-0.0159,-0.0050, 0.0122,-0.0105,-0.0138,-0.0129, 0.0195, 0.0019, 0.2042
20-Jan-2019 13:01:24.836, 0.0041,-0.0015,-0.9861,-0.0152,-0.0042, 0.0135,-0.0084,-0.0149,-0.0118, 0.0195, 0.0019, 0.2041
20-Jan-2019 13:01:24.846, 0.0019, 0.0005,-0.9869,-0.0153, 0.0004, 0.0137,-0.0083,-0.0159,-0.0129, 0.0194, 0.0019, 0.2041
20-Jan-2019 13:01:24.856, 0.0011,-0.0034,-0.9864,-0.0175, 0.0024, 0.0129,-0.0083,-0.0149,-0.0129, 0.0194, 0.0019, 0.2041
20-Jan-2019 13:01:24.866, 0.0024,-0.0081,-0.9881,-0.0183,-0.0015, 0.0134,-0.0083,-0.0149,-0.0129, 0.0194, 0.0019, 0.2041
20-Jan-2019 13:01:24.876, 0.0035,-0.0060,-0.9860,-0.0170,-0.0062, 0.0117,-0.0084,-0.0149,-0.0118, 0.0194, 0.0019, 0.2041
20-Jan-2019 13:01:24.886, 0.0051,-0.0062,-0.9868,-0.0159,-0.0041, 0.0138,-0.0094,-0.0149,-0.0118, 0.0194, 0.0019, 0.2041
20-Jan-2019 13:01:24.896, 0.0038,-0.0068,-0.9867,-0.0143,-0.0043, 0.0130,-0.0094,-0.0138,-0.0118, 0.0194, 0.0019, 0.2041
20-Jan-2019 13:01:24.905, 0.0008,-0.0041,-0.9868,-0.0156,-0.0048, 0.0131,-0.0083,-0.0159,-0.0118, 0.0193, 0.0020, 0.2041
20-Jan-2019 13:01:24.916,-0.0001, 0.0011,-0.9882,-0.0186,-0.0022, 0.0131,-0.0105,-0.0149,-0.0118, 0.0193, 0.0020, 0.2041
20-Jan-2019 13:01:24.925, 0.0027, 0.0007,-0.9877,-0.0194, 0.0031, 0.0116,-0.0073,-0.0159,-0.0128, 0.0193, 0.0020, 0.2041
20-Jan-2019 13:01:24.935, 0.0043,-0.0019,-0.9863,-0.0166, 0.0026, 0.0121,-0.0084,-0.0138,-0.0118, 0.0193, 0.0020, 0.2041
20-Jan-2019 13:01:24.945, 0.0025,-0.0071,-0.9888,-0.0150, 0.0000, 0.0135,-0.0094,-0.0138,-0.0118, 0.0193, 0.0020, 0.2041
20-Jan-2019 13:01:24.955, 0.0022,-0.0083,-0.9867,-0.0168,-0.0051, 0.0110,-0.0094,-0.0128,-0.0129, 0.0193, 0.0020, 0.2041
20-Jan-2019 13:01:24.966, 0.0019,-0.0079,-0.9875,-0.0171,-0.0063, 0.0131,-0.0094,-0.0160,-0.0118, 0.0193, 0.0020, 0.2041
20-Jan-2019 13:01:24.975, 0.0035,-0.0036,-0.9864,-0.0173,-0.0059, 0.0123,-0.0094,-0.0138,-0.0118, 0.0193, 0.0020, 0.2041
20-Jan-2019 13:01:24.985, 0.0031,-0.0016,-0.9861,-0.0157,-0.0016, 0.0134,-0.0084,-0.0149,-0.0118, 0.0192, 0.0020, 0.2041
20-Jan-2019 13:01:24.995, 0.0027,-0.0010,-0.9871,-0.0161, 0.0004, 0.0137,-0.0073,-0.0149,-0.0118, 0.0192, 0.0020, 0.2041
20-Jan-2019 13:01:25.005, 0.0032,-0.0033,-0.9877,-0.0165, 0.0010, 0.0127,-0.0105,-0.0138,-0.0129, 0.0192, 0.0020, 0.2041
20-Jan-2019 13:01:25.016, 0.0023,-0.0065,-0.9874,-0.0161,-0.0013, 0.0121,-0.0094,-0.0138,-0.0107, 0.0192, 0.0020, 0.2041
20-Jan-2019 13:01:25.025, 0.0032,-0.0067,-0.9872,-0.0169,-0.0044, 0.0125,-0.0094,-0.0138,-0.0107, 0.0192, 0.0020, 0.2041
20-Jan-2019 13:01:25.035, 0.0027,-0.0062,-0.9861,-0.0160,-0.0047, 0.0126,-0.0094,-0.0138,-0.0129, 0.0192, 0.0020, 0.2041
20-Jan-2019 13:01:25.045, 0.0025,-0.0050,-0.9879,-0.0165,-0.0042, 0.0138,-0.0084,-0.0138,-0.0118, 0.0192, 0.0020, 0.2041
20-Jan-2019 13:01:25.054, 0.0035,-0.0037,-0.9851,-0.0167,-0.0030, 0.0119,-0.0105,-0.0128,-0.0118, 0.0192, 0.0020, 0.2041
20-Jan-2019 13:01:25.065, 0.0025,-0.0032,-0.9865,-0.0157,-0.0016, 0.0147,-0.0083,-0.0159,-0.0118, 0.0192, 0.0020, 0.2041
20-Jan-2019 13:01:25.074, 0.0040,-0.0022,-0.9870,-0.0166,-0.0011, 0.0133,-0.0084,-0.0138,-0.0107, 0.0192, 0.0021, 0.2041
20-Jan-2019 13:01:25.084, 0.0030,-0.0039,-0.9865,-0.0151,-0.0002, 0.0128,-0.0105,-0.0160,-0.0107, 0.0191, 0.0020, 0.2041
20-Jan-2019 13:01:25.094, 0.0029,-0.0066,-0.9878,-0.0162,-0.0018, 0.0133,-0.0105,-0.0160,-0.0118, 0.0191, 0.0020, 0.2041
20-Jan-2019 13:01:25.104, 0.0022,-0.0051,-0.9869,-0.0162,-0.0046, 0.0120,-0.0105,-0.0149,-0.0139, 0.0191, 0.0020, 0.2041
20-Jan-2019 13:01:25.115, 0.0034,-0.0050,-0.9863,-0.0170,-0.0030, 0.0129,-0.0094,-0.0138,-0.0118, 0.0191, 0.0020, 0.2041
20-Jan-2019 13:01:25.124, 0.0044,-0.0040,-0.9852,-0.0157,-0.0030, 0.0135,-0.0105,-0.0138,-0.0107, 0.0191, 0.0020, 0.2041
20-Jan-2019 13:01:25.134, 0.0027,-0.0039,-0.9848,-0.0147,-0.0019, 0.0146,-0.0073,-0.0138,-0.0118, 0.0191, 0.0021, 0.2041
20-Jan-2019 13:01:25.144, 0.0021,-0.0042,-0.9860,-0.0164,-0.0018, 0.0150,-0.0094,-0.0149,-0.0129, 0.0191, 0.0021, 0.2041
20-Jan-2019 13:01:25.154, 0.0018,-0.0035,-0.9888,-0.0170,-0.0021, 0.0139,-0.0073,-0.0138,-0.0118, 0.0191, 0.0021, 0.2041
20-Jan-2019 13:01:25.164, 0.0044,-0.0017,-0.9886,-0.0173,-0.0014, 0.0110,-0.0083,-0.0159,-0.0118, 0.0191, 0.0021, 0.2041
20-Jan-2019 13:01:25.174, 0.0026,-0.0027,-0.9856,-0.0147, 0.0004, 0.0112,-0.0105,-0.0170,-0.0118, 0.0191, 0.0021, 0.2041
20-Jan-2019 13:01:25.183, 0.0028,-0.0089,-0.9856,-0.0165,-0.0007, 0.0142,-0.0105,-0.0128,-0.0118, 0.0191, 0.0021, 0.2041
20-Jan-2019 13:01:25.194, 0.0019,-0.0053,-0.9864,-0.0163,-0.0068, 0.0142,-0.0084,-0.0138,-0.0118, 0.0191, 0.0021, 0.2041
20-Jan-2019 13:01:25.203, 0.0017,-0.0059,-0.9889,-0.0172,-0.0032, 0.0134,-0.0094,-0.0138,-0.0118, 0.0190, 0.0021, 0.2041
20-Jan-2019 13:01:25.213, 0.0029,-0.0029,-0.9881,-0.0174,-0.0038, 0.0109,-0.0094,-0.0160,-0.0118, 0.0190, 0.0021, 0.2041
20-Jan-2019 13:01:25.223, 0.0040,-0.0027,-0.9860,-0.0161,-0.0008, 0.0117,-0.0084,-0.0138,-0.0129, 0.0190, 0.0021, 0.2041
20-Jan-2019 13:01:25.233, 0.0042,-0.0060,-0.9845,-0.0150,-0.0006, 0.0138,-0.0105,-0.0138,-0.0118, 0.0190, 0.0021, 0.2041
20-Jan-2019 13:01:25.243, 0.0015,-0.0022,-0.9851,-0.0148,-0.0039, 0.0153,-0.0105,-0.0149,-0.0107, 0.0190, 0.0021, 0.2041
20-Jan-2019 13:01:25.253, 0.0003,-0.0049,-0.9914,-0.0175,-0.0001, 0.0147,-0.0084,-0.0128,-0.0118, 0.0190, 0.0021, 0.2041
20-Jan-2019 13:01:25.263, 0.0054,-0.0073,-0.9871,-0.0186,-0.0028, 0.0084,-0.0083,-0.0149,-0.0129, 0.0190, 0.0021, 0.2041
20-Jan-2019 13:01:25.273, 0.0046,-0.0035,-0.9839,-0.0136,-0.0052, 0.0127,-0.0105,-0.0138,-0.0129, 0.0190, 0.0021, 0.2041
20-Jan-2019 13:01:25.283, 0.0018,-0.0045,-0.9879,-0.0143,-0.0014, 0.0159,-0.0094,-0.0149,-0.0129, 0.0190, 0.0021, 0.2041
20-Jan-2019 13:01:25.293, 0.0018,-0.0057,-0.9876,-0.0171,-0.0023, 0.0120,-0.0083,-0.0159,-0.0118, 0.0190, 0.0022, 0.2041
20-Jan-2019 13:01:25.302, 0.0018,-0.0057,-0.9857,-0.0171,-0.0035, 0.0122,-0.0094,-0.0138,-0.0118, 0.0189, 0.0022, 0.2041
20-Jan-2019 13:01:25.312, 0.0030,-0.0021,-0.9843,-0.0171,-0.0036, 0.0141,-0.0094,-0.0149,-0.0097, 0.0189, 0.0022, 0.2041
20-Jan-2019 13:01:25.322, 0.0052,-0.0040,-0.9884,-0.0159, 0.0000, 0.0155,-0.0084,-0.0149,-0.0107, 0.0189, 0.0022, 0.2041
20-Jan-2019 13:01:25.332, 0.0038,-0.0068,-0.9880,-0.0137,-0.0018, 0.0114,-0.0084,-0.0149,-0.0118, 0.0189, 0.0022, 0.2041
20-Jan-2019 13:01:25.342, 0.0041,-0.0060,-0.9850,-0.0151,-0.0047, 0.0118,-0.0094,-0.0149,-0.0118, 0.0189, 0.0022, 0.2041
20-Jan-2019 13:01:25.352, 0.0016,-0.0038,-0.9878,-0.0148,-0.0039, 0.0148,-0.0094,-0.0138,-0.0129, 0.0189, 0.0022, 0.2041
20-Jan-2019 13:01:25.362,-0.0022,-0.0003,-0.9881,-0.0173,-0.0016, 0.0120,-0.0083,-0.0159,-0.0118, 0.0189, 0.0022, 0.2041
20-Jan-2019 13:01:25.372, 0.0010,-0.0024,-0.9857,-0.0211, 0.0019, 0.0117,-0.0094,-0.0149,-0.0118, 0.0189, 0.0022, 0.2041
20-Jan-2019 13:01:25.382, 0.0061,-0.0063,-0.9846,-0.0179,-0.0003, 0.0141,-0.0094,-0.0138,-0.0107, 0.0188, 0.0022, 0.2041
20-Jan-2019 13:01:25.392, 0.0058,-0.0082,-0.9894,-0.0128,-0.0041, 0.0152,-0.0083,-0.0159,-0.0129, 0.0188, 0.0022, 0.2041
20-Jan-2019 13:01:25.402, 0.0009,-0.0066,-0.9873,-0.0130,-0.0060, 0.0105,-0.0105,-0.0138,-0.0129, 0.0188, 0.0022, 0.2041
20-Jan-2019 13:01:25.413, 0.0007,-0.0036,-0.9864,-0.0179,-0.0044, 0.0125,-0.0083,-0.0149,-0.0139, 0.0188, 0.0022, 0.2041
20-Jan-2019 13:01:25.422, 0.0048,-0.0041,-0.9883,-0.0181,-0.0014, 0.0134,-0.0094,-0.0128,-0.0129, 0.0188, 0.0022, 0.2041
20-Jan-2019 13:01:25.432, 0.0040,-0.0024,-0.9855,-0.0140,-0.0018, 0.0115,-0.0073,-0.0138,-0.0118, 0.0188, 0.0022, 0.2041
20-Jan-2019 13:01:25.442, 0.0028,-0.0034,-0.9860,-0.0148,-0.0002, 0.0143,-0.0094,-0.0160,-0.0118, 0.0188, 0.0022, 0.2041
20-Jan-2019 13:01:25.452, 0.0023,-0.0045,-0.9867,-0.0160,-0.0011, 0.0138,-0.0094,-0.0149,-0.0139, 0.0188, 0.0022, 0.2041
20-Jan-2019 13:01:25.462, 0.0013,-0.0063,-0.9868,-0.0164,-0.0023, 0.0131,-0.0094,-0.0138,-0.0129, 0.0188, 0.0022, 0.2041
20-Jan-2019 13:01:25.472, 0.0020,-0.0075,-0.9868,-0.0174,-0.0041, 0.0130,-0.0084,-0.0149,-0.0107, 0.0187, 0.0022, 0.2041
20-Jan-2019 13:01:25.481, 0.0045,-0.0062,-0.9875,-0.0167,-0.0053, 0.0130,-0.0073,-0.0149,-0.0118, 0.0187, 0.0022, 0.2041
20-Jan-2019 13:01:25.493, 0.0033,-0.0035,-0.9881,-0.0142,-0.0040, 0.0123,-0.0094,-0.0149,-0.0118, 0.0187, 0.0023, 0.2041
20-Jan-2019 13:01:25.501, 0.0005,-0.0011,-0.9857,-0.0155,-0.0013, 0.0117,-0.0094,-0.0128,-0.0129, 0.0187, 0.0023, 0.2041
20-Jan-2019 13:01:25.511, 0.0014,-0.0035,-0.9863,-0.0182, 0.0012, 0.0141,-0.0084,-0.0138,-0.0129, 0.0187, 0.0023, 0.2041
20-Jan-2019 13:01:25.521, 0.0025,-0.0059,-0.9865,-0.0173,-0.0013, 0.0136,-0.0105,-0.0138,-0.0118, 0.0187, 0.0023, 0.2041
20-Jan-2019 13:01:25.531, 0.0051,-0.0068,-0.9869,-0.0162,-0.0037, 0.0134,-0.0115,-0.0138,-0.0129, 0.0187, 0.0023, 0.2041
20-Jan-2019 13:01:25.541, 0.0053,-0.0055,-0.9860,-0.0135,-0.0045, 0.0129,-0.0094,-0.0149,-0.0129, 0.0187, 0.0023, 0.2041
20-Jan-2019 13:01:25.552, 0.0023,-0.0047,-0.9866,-0.0133,-0.0032, 0.0138,-0.0083,-0.0159,-0.0118, 0.0187, 0.0023, 0.2041
20-Jan-2019 13:01:25.561, 0.0014,-0.0035,-0.9880,-0.0164,-0.0024, 0.0133,-0.0094,-0.0128,-0.0129, 0.0187, 0.0023, 0.2041
20-Jan-2019 13:01:25.571, 0.0020, 0.0001,-0.9864,-0.0172,-0.0012, 0.0118,-0.0105,-0.0138,-0.0118, 0.0187, 0.0023, 0.2041
20-Jan-2019 13:01:25.581, 0.0029,-0.0023,-0.9868,-0.0167, 0.0024, 0.0134,-0.0084,-0.0128,-0.0118, 0.0187, 0.0023, 0.2041
20-Jan-2019 13:01:25.591, 0.0061,-0.0066,-0.9874,-0.0158, 0.0000, 0.0131,-0.0094,-0.0138,-0.0129, 0.0187, 0.0023, 0.2041
20-Jan-2019 13:01:25.601, 0.0051,-0.0062,-0.9885,-0.0125,-0.0043, 0.0124,-0.0084,-0.0128,-0.0107, 0.0187, 0.0023, 0.2041
20-Jan-2019 13:01:25.611, 0.0002,-0.0060,-0.9879,-0.0136,-0.0039, 0.0113,-0.0094,-0.0138,-0.0118, 0.0186, 0.0023, 0.2041
20-Jan-2019 13:01:25.621, 0.0012,-0.0062,-0.9862,-0.0184,-0.0038, 0.0119,-0.0094,-0.0138,-0.0107, 0.0186, 0.0023, 0.2041
20-Jan-2019 13:01:25.630, 0.0039,-0.0064,-0.9874,-0.0174,-0.0039, 0.0136,-0.0084,-0.0128,-0.0118, 0.0186, 0.0023, 0.2041
20-Jan-2019 13:01:25.641, 0.0019,-0.0005,-0.9858,-0.0147,-0.0041, 0.0124,-0.0084,-0.0138,-0.0118, 0.0186, 0.0023, 0.2041
20-Jan-2019 13:01:25.651, 0.0020, 0.0007,-0.9866,-0.0168, 0.0018, 0.0140,-0.0105,-0.0128,-0.0118, 0.0186, 0.0023, 0.2041
20-Jan-2019 13:01:25.660, 0.0033,-0.0026,-0.9872,-0.0166, 0.0030, 0.0132,-0.0084,-0.0149,-0.0107, 0.0186, 0.0023, 0.2041
20-Jan-2019 13:01:25.670, 0.0035,-0.0074,-0.9867,-0.0153,-0.0003, 0.0126,-0.0094,-0.0138,-0.0107, 0.0186, 0.0023, 0.2041
20-Jan-2019 13:01:25.680, 0.0018,-0.0077,-0.9873,-0.0151,-0.0051, 0.0131,-0.0073,-0.0149,-0.0107, 0.0186, 0.0023, 0.2041
20-Jan-2019 13:01:25.690, 0.0025,-0.0068,-0.9874,-0.0168,-0.0054, 0.0125,-0.0105,-0.0138,-0.0118, 0.0186, 0.0023, 0.2041
20-Jan-2019 13:01:25.702, 0.0045,-0.0046,-0.9862,-0.0160,-0.0044, 0.0125,-0.0084,-0.0138,-0.0118, 0.0186, 0.0023, 0.2041
20-Jan-2019 13:01:25.710, 0.0032,-0.0022,-0.9858,-0.0141,-0.0022, 0.0136,-0.0094,-0.0138,-0.0118, 0.0186, 0.0023, 0.2041
20-Jan-2019 13:01:25.721, 0.0017,-0.0029,-0.9871,-0.0154, 0.0002, 0.0140,-0.0084,-0.0138,-0.0118, 0.0186, 0.0023, 0.2041
20-Jan-2019 13:01:25.730, 0.0008,-0.0025,-0.9858,-0.0168,-0.0006, 0.0128,-0.0084,-0.0138,-0.0129, 0.0186, 0.0024, 0.2041
20-Jan-2019 13:01:25.740, 0.0028,-0.0051,-0.9857,-0.0177,-0.0001, 0.0140,-0.0083,-0.0149,-0.0129, 0.0185, 0.0024, 0.2041
20-Jan-2019 13:01:25.750, 0.0053,-0.0085,-0.9862,-0.0157,-0.0028, 0.0142,-0.0083,-0.0159,-0.0129, 0.0185, 0.0024, 0.2041
20-Jan-2019 13:01:25.760, 0.0044,-0.0088,-0.9887,-0.0132,-0.0061, 0.0137,-0.0084,-0.0138,-0.0118, 0.0185, 0.0024, 0.2041
20-Jan-2019 13:01:25.770, 0.0015,-0.0049,-0.9865,-0.0140,-0.0064, 0.0111,-0.0105,-0.0160,-0.0118, 0.0185, 0.0024, 0.2041
20-Jan-2019 13:01:25.779, 0.0011,-0.0008,-0.9871,-0.0170,-0.0025, 0.0133,-0.0094,-0.0149,-0.0118, 0.0185, 0.0024, 0.2041
20-Jan-2019 13:01:25.790, 0.0031,-0.0009,-0.9874,-0.0174, 0.0016, 0.0127,-0.0094,-0.0138,-0.0129, 0.0184, 0.0024, 0.2041
20-Jan-2019 13:01:25.799, 0.0034,-0.0010,-0.9850,-0.0154, 0.0015, 0.0124,-0.0094,-0.0128,-0.0129, 0.0184, 0.0024, 0.2041
20-Jan-2019 13:01:25.810, 0.0035,-0.0048,-0.9855,-0.0150, 0.0014, 0.0148,-0.0083,-0.0149,-0.0129, 0.0184, 0.0024, 0.2041
20-Jan-2019 13:01:25.820, 0.0024,-0.0089,-0.9885,-0.0148,-0.0024, 0.0143,-0.0084,-0.0149,-0.0118, 0.0184, 0.0024, 0.2041
20-Jan-2019 13:01:25.829, 0.0021,-0.0094,-0.9880,-0.0159,-0.0065, 0.0113,-0.0084,-0.0138,-0.0129, 0.0184, 0.0024, 0.2041
20-Jan-2019 13:01:25.839, 0.0031,-0.0044,-0.9857,-0.0163,-0.0070, 0.0119,-0.0094,-0.0138,-0.0129, 0.0184, 0.0024, 0.2041
20-Jan-2019 13:01:25.849, 0.0025, 0.0003,-0.9854,-0.0153,-0.0020, 0.0141,-0.0094,-0.0138,-0.0107, 0.0183, 0.0024, 0.2041
20-Jan-2019 13:01:25.859, 0.0027, 0.0004,-0.9862,-0.0158, 0.0027, 0.0145,-0.0084,-0.0149,-0.0107, 0.0183, 0.0024, 0.2041
20-Jan-2019 13:01:25.869, 0.0024,-0.0024,-0.9865,-0.0155, 0.0028, 0.0136,-0.0083,-0.0159,-0.0129, 0.0183, 0.0024, 0.2041
20-Jan-2019 13:01:25.879, 0.0026,-0.0046,-0.9855,-0.0159, 0.0000, 0.0133,-0.0105,-0.0159,-0.0139, 0.0183, 0.0024, 0.2041
20-Jan-2019 13:01:25.889, 0.0029,-0.0065,-0.9871,-0.0156,-0.0022, 0.0144,-0.0094,-0.0149,-0.0118, 0.0183, 0.0024, 0.2041
20-Jan-2019 13:01:25.899, 0.0036,-0.0074,-0.9879,-0.0154,-0.0041, 0.0127,-0.0084,-0.0138,-0.0118, 0.0183, 0.0024, 0.2041
20-Jan-2019 13:01:25.909, 0.0036,-0.0066,-0.9874,-0.0146,-0.0049, 0.0119,-0.0094,-0.0128,-0.0118, 0.0182, 0.0024, 0.2041
20-Jan-2019 13:01:25.919, 0.0034,-0.0042,-0.9861,-0.0146,-0.0042, 0.0124,-0.0084,-0.0149,-0.0118, 0.0182, 0.0024, 0.2041
20-Jan-2019 13:01:25.928, 0.0027,-0.0031,-0.9874,-0.0148,-0.0018, 0.0137,-0.0105,-0.0138,-0.0129, 0.0182, 0.0024, 0.2040
20-Jan-2019 13:01:25.939, 0.0017,-0.0017,-0.9866,-0.0155,-0.0007, 0.0124,-0.0105,-0.0149,-0.0118, 0.0182, 0.0024, 0.2041
20-Jan-2019 13:01:25.948, 0.0021,-0.0025,-0.9870,-0.0165, 0.0007, 0.0133,-0.0094,-0.0149,-0.0118, 0.0182, 0.0024, 0.2041
20-Jan-2019 13:01:25.958, 0.0032,-0.0070,-0.9879,-0.0161,-0.0002, 0.0129,-0.0105,-0.0160,-0.0107, 0.0181, 0.0024, 0.2041
20-Jan-2019 13:01:25.969, 0.0042,-0.0082,-0.9883,-0.0150,-0.0046, 0.0119,-0.0094,-0.0128,-0.0118, 0.0181, 0.0024, 0.2041
20-Jan-2019 13:01:25.978, 0.0038,-0.0060,-0.9881,-0.0139,-0.0058, 0.0115,-0.0094,-0.0149,-0.0129, 0.0181, 0.0024, 0.2041
20-Jan-2019 13:01:25.988, 0.0026,-0.0040,-0.9879,-0.0143,-0.0037, 0.0117,-0.0105,-0.0149,-0.0129, 0.0181, 0.0024, 0.2041
20-Jan-2019 13:01:25.999, 0.0024,-0.0016,-0.9876,-0.0155,-0.0016, 0.0119,-0.0084,-0.0128,-0.0118, 0.0181, 0.0024, 0.2040
20-Jan-2019 13:01:26.008, 0.0030,-0.0014,-0.9867,-0.0157, 0.0007, 0.0122,-0.0094,-0.0160,-0.0118, 0.0181, 0.0024, 0.2041
20-Jan-2019 13:01:26.018, 0.0033,-0.0036,-0.9863,-0.0147,-0.0013, 0.0136,-0.0094,-0.0138,-0.0118, 0.0180, 0.0024, 0.2041
20-Jan-2019 13:01:26.029, 0.0039,-0.0046,-0.9877,-0.0147,-0.0013, 0.0136,-0.0084,-0.0138,-0.0118, 0.0180, 0.0024, 0.2040
20-Jan-2019 13:01:26.038, 0.0021,-0.0052,-0.9866,-0.0141,-0.0022, 0.0121,-0.0094,-0.0149,-0.0118, 0.0180, 0.0024, 0.2040
20-Jan-2019 13:01:26.048, 0.0013,-0.0060,-0.9861,-0.0159,-0.0028, 0.0132,-0.0105,-0.0138,-0.0129, 0.0180, 0.0024, 0.2040
20-Jan-2019 13:01:26.058, 0.0025,-0.0054,-0.9876,-0.0167,-0.0036, 0.0137,-0.0084,-0.0138,-0.0107, 0.0180, 0.0024, 0.2040
20-Jan-2019 13:01:26.068, 0.0034,-0.0027,-0.9857,-0.0155,-0.0031, 0.0123,-0.0105,-0.0128,-0.0129, 0.0180, 0.0024, 0.2040
20-Jan-2019 13:01:26.078, 0.0029,-0.0012,-0.9850,-0.0146,-0.0003, 0.0141,-0.0105,-0.0149,-0.0129, 0.0180, 0.0024, 0.2040
20-Jan-2019 13:01:26.088, 0.0024,-0.0019,-0.9869,-0.0151, 0.0012, 0.0148,-0.0084,-0.0149,-0.0118, 0.0180, 0.0024, 0.2040
20-Jan-2019 13:01:26.097, 0.0023,-0.0040,-0.9875,-0.0156, 0.0005, 0.0129,-0.0105,-0.0149,-0.0118, 0.0180, 0.0024, 0.2040
20-Jan-2019 13:01:26.107, 0.0030,-0.0076,-0.9866,-0.0156,-0.0016, 0.0124,-0.0083,-0.0149,-0.0139, 0.0179, 0.0024, 0.2040
20-Jan-2019 13:01:26.118, 0.0040,-0.0074,-0.9868,-0.0149,-0.0052, 0.0132,-0.0073,-0.0149,-0.0118, 0.0179, 0.0024, 0.2040
20-Jan-2019 13:01:26.127, 0.0036,-0.0061,-0.9868,-0.0139,-0.0050, 0.0131,-0.0094,-0.0149,-0.0118, 0.0179, 0.0024, 0.2040
20-Jan-2019 13:01:26.137, 0.0018,-0.0024,-0.9856,-0.0143,-0.0037, 0.0130,-0.0105,-0.0149,-0.0129, 0.0179, 0.0024, 0.2040
20-Jan-2019 13:01:26.147, 0.0018,-0.0021,-0.9856,-0.0161,-0.0000, 0.0143,-0.0094,-0.0149,-0.0129, 0.0179, 0.0024, 0.2040
20-Jan-2019 13:01:26.157, 0.0021,-0.0040,-0.9866,-0.0161, 0.0004, 0.0142,-0.0084,-0.0138,-0.0107, 0.0179, 0.0024, 0.2040
20-Jan-2019 13:01:26.167, 0.0030,-0.0050,-0.9874,-0.0157,-0.0016, 0.0132,-0.0094,-0.0149,-0.0118, 0.0179, 0.0024, 0.2040
20-Jan-2019 13:01:26.177, 0.0030,-0.0053,-0.9877,-0.0148,-0.0026, 0.0125,-0.0094,-0.0128,-0.0107, 0.0179, 0.0024, 0.2040
20-Jan-2019 13:01:26.187, 0.0029,-0.0065,-0.9875,-0.0148,-0.0029, 0.0121,-0.0105,-0.0149,-0.0118, 0.0178, 0.0024, 0.2040
20-Jan-2019 13:01:26.197, 0.0034,-0.0065,-0.9865,-0.0150,-0.0041, 0.0124,-0.0094,-0.0117,-0.0129, 0.0178, 0.0024, 0.2040
20-Jan-2019 13:01:26.207, 0.0041,-0.0052,-0.9871,-0.0144,-0.0040, 0.0133,-0.0094,-0.0149,-0.0118, 0.0178, 0.0024, 0.2040
20-Jan-2019 13:01:26.216, 0.0028,-0.0032,-0.9873,-0.0137,-0.0028, 0.0127,-0.0094,-0.0149,-0.0118, 0.0178, 0.0024, 0.2040
20-Jan-2019 13:01:26.227, 0.0010,-0.0023,-0.9864,-0.0150,-0.0008, 0.0126,-0.0084,-0.0138,-0.0118, 0.0178, 0.0024, 0.2040
20-Jan-2019 13:01:26.236, 0.0019,-0.0035,-0.9870,-0.0168, 0.0001, 0.0134,-0.0094,-0.0138,-0.0129, 0.0178, 0.0024, 0.2040
20-Jan-2019 13:01:26.246, 0.0023,-0.0056,-0.9864,-0.0159,-0.0011, 0.0128,-0.0116,-0.0138,-0.0118, 0.0178, 0.0024, 0.2040
20-Jan-2019 13:01:26.256, 0.0033,-0.0070,-0.9875,-0.0155,-0.0032, 0.0135,-0.0094,-0.0149,-0.0118, 0.0178, 0.0024, 0.2040
20-Jan-2019 13:01:26.267, 0.0036,-0.0056,-0.9870,-0.0145,-0.0046, 0.0123,-0.0094,-0.0149,-0.0118, 0.0178, 0.0024, 0.2040
20-Jan-2019 13:01:26.276, 0.0030,-0.0035,-0.9869,-0.0142,-0.0032, 0.0128,-0.0083,-0.0149,-0.0129, 0.0177, 0.0024, 0.2040
20-Jan-2019 13:01:26.286, 0.0044,-0.0028,-0.9866,-0.0148,-0.0010, 0.0130,-0.0105,-0.0138,-0.0129, 0.0177, 0.0024, 0.2040
20-Jan-2019 13:01:26.296, 0.0028,-0.0026,-0.9854,-0.0133,-0.0004, 0.0133,-0.0115,-0.0149,-0.0107, 0.0177, 0.0024, 0.2040
20-Jan-2019 13:01:26.306, 0.0027,-0.0055,-0.9871,-0.0149,-0.0002, 0.0145,-0.0084,-0.0149,-0.0118, 0.0177, 0.0024, 0.2040
20-Jan-2019 13:01:26.316, 0.0033,-0.0061,-0.9877,-0.0149,-0.0031, 0.0127,-0.0105,-0.0149,-0.0118, 0.0177, 0.0024, 0.2040
20-Jan-2019 13:01:26.327, 0.0024,-0.0066,-0.9867,-0.0144,-0.0037, 0.0122,-0.0094,-0.0149,-0.0107, 0.0177, 0.0024, 0.2040
20-Jan-2019 13:01:26.336, 0.0023,-0.0064,-0.9867,-0.0153,-0.0042, 0.0132,-0.0094,-0.0138,-0.0118, 0.0176, 0.0024, 0.2040
20-Jan-2019 13:01:26.346, 0.0028,-0.0048,-0.9865,-0.0153,-0.0040, 0.0132,-0.0084,-0.0149,-0.0118, 0.0176, 0.0024, 0.2040
20-Jan-2019 13:01:26.356, 0.0027,-0.0047,-0.9868,-0.0149,-0.0024, 0.0134,-0.0094,-0.0138,-0.0129, 0.0176, 0.0024, 0.2040
20-Jan-2019 13:01:26.366, 0.0037,-0.0031,-0.9854,-0.0149,-0.0023, 0.0130,-0.0083,-0.0170,-0.0129, 0.0176, 0.0024, 0.2040
20-Jan-2019 13:01:26.375, 0.0030,-0.0038,-0.9852,-0.0138,-0.0006, 0.0145,-0.0083,-0.0159,-0.0118, 0.0176, 0.0024, 0.2040
20-Jan-2019 13:01:26.386, 0.0029,-0.0051,-0.9858,-0.0145,-0.0014, 0.0146,-0.0094,-0.0138,-0.0118, 0.0176, 0.0024, 0.2040
20-Jan-2019 13:01:26.396, 0.0032,-0.0055,-0.9871,-0.0147,-0.0026, 0.0141,-0.0094,-0.0128,-0.0129, 0.0176, 0.0024, 0.2040
20-Jan-2019 13:01:26.406, 0.0019,-0.0052,-0.9874,-0.0143,-0.0031, 0.0128,-0.0105,-0.0149,-0.0129, 0.0176, 0.0024, 0.2040
20-Jan-2019 13:01:26.415, 0.0015,-0.0037,-0.9871,-0.0157,-0.0027, 0.0125,-0.0084,-0.0149,-0.0118, 0.0175, 0.0024, 0.2040
20-Jan-2019 13:01:26.425, 0.0032,-0.0041,-0.9871,-0.0160,-0.0013, 0.0127,-0.0084,-0.0149,-0.0107, 0.0175, 0.0024, 0.2040
20-Jan-2019 13:01:26.435, 0.0036,-0.0034,-0.9875,-0.0143,-0.0017, 0.0127,-0.0094,-0.0160,-0.0107, 0.0175, 0.0024, 0.2040
20-Jan-2019 13:01:26.445, 0.0043,-0.0048,-0.9869,-0.0139,-0.0009, 0.0123,-0.0094,-0.0149,-0.0129, 0.0175, 0.0024, 0.2040
20-Jan-2019 13:01:26.455, 0.0028,-0.0056,-0.9863,-0.0131,-0.0023, 0.0130,-0.0094,-0.0149,-0.0107, 0.0175, 0.0024, 0.2040
20-Jan-2019 13:01:26.465, 0.0024,-0.0043,-0.9865,-0.0146,-0.0031, 0.0136,-0.0084,-0.0149,-0.0107, 0.0174, 0.0025, 0.2040
20-Jan-2019 13:01:26.475, 0.0030,-0.0043,-0.9875,-0.0150,-0.0019, 0.0133,-0.0094,-0.0149,-0.0118, 0.0174, 0.0025, 0.2040
20-Jan-2019 13:01:26.485, 0.0014,-0.0040,-0.9873,-0.0144,-0.0018, 0.0123,-0.0083,-0.0159,-0.0118, 0.0174, 0.0025, 0.2040
20-Jan-2019 13:01:26.495, 0.0027,-0.0047,-0.9871,-0.0160,-0.0015, 0.0125,-0.0073,-0.0149,-0.0128, 0.0174, 0.0025, 0.2040
20-Jan-2019 13:01:26.505, 0.0044,-0.0050,-0.9862,-0.0146,-0.0022, 0.0127,-0.0094,-0.0138,-0.0118, 0.0174, 0.0025, 0.2040
20-Jan-2019 13:01:26.515, 0.0030,-0.0043,-0.9872,-0.0130,-0.0025, 0.0137,-0.0094,-0.0138,-0.0107, 0.0174, 0.0025, 0.2040
20-Jan-2019 13:01:26.524, 0.0032,-0.0048,-0.9865,-0.0144,-0.0019, 0.0126,-0.0084,-0.0149,-0.0118, 0.0173, 0.0025, 0.2040
20-Jan-2019 13:01:26.535, 0.0029,-0.0054,-0.9859,-0.0142,-0.0023, 0.0134,-0.0094,-0.0149,-0.0107, 0.0173, 0.0025, 0.2040
20-Jan-2019 13:01:26.545, 0.0025,-0.0060,-0.9868,-0.0144,-0.0030, 0.0140,-0.0105,-0.0138,-0.0118, 0.0173, 0.0025, 0.2040
20-Jan-2019 13:01:26.554, 0.0023,-0.0049,-0.9859,-0.0148,-0.0035, 0.0131,-0.0094,-0.0138,-0.0129, 0.0173, 0.0025, 0.2040
20-Jan-2019 13:01:26.566, 0.0030,-0.0039,-0.9871,-0.0150,-0.0024, 0.0140,-0.0084,-0.0138,-0.0129, 0.0173, 0.0025, 0.2040
20-Jan-2019 13:01:26.574, 0.0026,-0.0042,-0.9866,-0.0143,-0.0014, 0.0128,-0.0073,-0.0138,-0.0107, 0.0173, 0.0025, 0.2040
20-Jan-2019 13:01:26.584, 0.0030,-0.0042,-0.9873,-0.0146,-0.0017, 0.0132,-0.0105,-0.0160,-0.0118, 0.0173, 0.0025, 0.2040
20-Jan-2019 13:01:26.594, 0.0035,-0.0053,-0.9872,-0.0142,-0.0017, 0.0126,-0.0105,-0.0138,-0.0107, 0.0172, 0.0025, 0.2041
20-Jan-2019 13:01:26.604, 0.0032,-0.0042,-0.9866,-0.0137,-0.0028, 0.0127,-0.0084,-0.0149,-0.0118, 0.0172, 0.0025, 0.2041
20-Jan-2019 13:01:26.614, 0.0038,-0.0046,-0.9861,-0.0140,-0.0017, 0.0133,-0.0094,-0.0138,-0.0118, 0.0172, 0.0025, 0.2041
20-Jan-2019 13:01:26.624, 0.0040,-0.0050,-0.9868,-0.0134,-0.0021, 0.0137,-0.0094,-0.0149,-0.0107, 0.0172, 0.0025, 0.2041
20-Jan-2019 13:01:26.634, 0.0021,-0.0057,-0.9874,-0.0132,-0.0025, 0.0131,-0.0094,-0.0149,-0.0129, 0.0172, 0.0025, 0.2041
20-Jan-2019 13:01:26.644, 0.0037,-0.0066,-0.9874,-0.0151,-0.0032, 0.0125,-0.0105,-0.0138,-0.0107, 0.0172, 0.0025, 0.2041
20-Jan-2019 13:01:26.654, 0.0034,-0.0059,-0.9873,-0.0135,-0.0042, 0.0125,-0.0094,-0.0128,-0.0097, 0.0172, 0.0025, 0.2041
20-Jan-2019 13:01:26.663, 0.0018,-0.0042,-0.9872,-0.0137,-0.0035, 0.0125,-0.0105,-0.0128,-0.0118, 0.0172, 0.0025, 0.2041
20-Jan-2019 13:01:26.674, 0.0033,-0.0027,-0.9880,-0.0154,-0.0017, 0.0127,-0.0094,-0.0149,-0.0107, 0.0172, 0.0025, 0.2041
20-Jan-2019 13:01:26.683, 0.0036,-0.0043,-0.9869,-0.0139,-0.0003, 0.0118,-0.0084,-0.0138,-0.0129, 0.0172, 0.0025, 0.2041
20-Jan-2019 13:01:26.693, 0.0025,-0.0062,-0.9864,-0.0136,-0.0018, 0.0130,-0.0094,-0.0128,-0.0118, 0.0172, 0.0025, 0.2041
20-Jan-2019 13:01:26.704, 0.0026,-0.0038,-0.9856,-0.0147,-0.0037, 0.0135,-0.0094,-0.0138,-0.0118, 0.0172, 0.0025, 0.2041
20-Jan-2019 13:01:26.713, 0.0026,-0.0037,-0.9864,-0.0145,-0.0014, 0.0143,-0.0094,-0.0138,-0.0107, 0.0172, 0.0025, 0.2041
20-Jan-2019 13:01:26.723, 0.0026,-0.0040,-0.9861,-0.0145,-0.0012, 0.0134,-0.0084,-0.0149,-0.0118, 0.0171, 0.0025, 0.2041
20-Jan-2019 13:01:26.733, 0.0040,-0.0042,-0.9863,-0.0145,-0.0016, 0.0138,-0.0105,-0.0160,-0.0118, 0.0171, 0.0025, 0.2041
20-Jan-2019 13:01:26.743, 0.0041,-0.0051,-0.9862,-0.0131,-0.0018, 0.0136,-0.0094,-0.0138,-0.0129, 0.0171, 0.0025, 0.2041
20-Jan-2019 13:01:26.753, 0.0026,-0.0030,-0.9869,-0.0130,-0.0026, 0.0136,-0.0084,-0.0149,-0.0107, 0.0171, 0.0025, 0.2041
20-Jan-2019 13:01:26.762, 0.0022,-0.0025,-0.9874,-0.0145,-0.0005, 0.0129,-0.0105,-0.0149,-0.0129, 0.0171, 0.0025, 0.2041
20-Jan-2019 13:01:26.772, 0.0029,-0.0045,-0.9874,-0.0148,-0.0001, 0.0125,-0.0115,-0.0160,-0.0118, 0.0171, 0.0025, 0.2041
20-Jan-2019 13:01:26.783, 0.0041,-0.0052,-0.9883,-0.0142,-0.0020, 0.0124,-0.0094,-0.0159,-0.0129, 0.0171, 0.0025, 0.2041
20-Jan-2019 13:01:26.792, 0.0029,-0.0047,-0.9873,-0.0129,-0.0027, 0.0116,-0.0094,-0.0149,-0.0118, 0.0170, 0.0025, 0.2041
20-Jan-2019 13:01:26.802, 0.0028,-0.0050,-0.9879,-0.0142,-0.0022, 0.0125,-0.0084,-0.0138,-0.0118, 0.0170, 0.0025, 0.2041
20-Jan-2019 13:01:26.812, 0.0026,-0.0046,-0.9871,-0.0142,-0.0025, 0.0120,-0.0094,-0.0149,-0.0107, 0.0170, 0.0025, 0.2041
20-Jan-2019 13:01:26.822, 0.0031,-0.0036,-0.9862,-0.0144,-0.0022, 0.0128,-0.0084,-0.0127,-0.0128, 0.0170, 0.0025, 0.2041
20-Jan-2019 13:01:26.832, 0.0044,-0.0043,-0.9852,-0.0139,-0.0011, 0.0136,-0.0116,-0.0128,-0.0118, 0.0170, 0.0025, 0.2041
20-Jan-2019 13:01:26.842, 0.0028,-0.0045,-0.9867,-0.0126,-0.0018, 0.0147,-0.0105,-0.0128,-0.0118, 0.0170, 0.0024, 0.2041
20-Jan-2019 13:01:26.852, 0.0013,-0.0026,-0.9864,-0.0142,-0.0021, 0.0132,-0.0105,-0.0128,-0.0118, 0.0170, 0.0024, 0.2041
20-Jan-2019 13:01:26.862, 0.0030,-0.0033,-0.9874,-0.0156,-0.0002, 0.0135,-0.0084,-0.0138,-0.0129, 0.0170, 0.0024, 0.2041
20-Jan-2019 13:01:26.872, 0.0038,-0.0054,-0.9878,-0.0139,-0.0009, 0.0125,-0.0105,-0.0138,-0.0129, 0.0170, 0.0024, 0.2041
20-Jan-2019 13:01:26.882, 0.0046,-0.0062,-0.9862,-0.0132,-0.0030, 0.0120,-0.0094,-0.0138,-0.0129, 0.0170, 0.0024, 0.2041
20-Jan-2019 13:01:26.892, 0.0033,-0.0048,-0.9861,-0.0124,-0.0037, 0.0137,-0.0094,-0.0138,-0.0107, 0.0170, 0.0024, 0.2041
20-Jan-2019 13:01:26.901, 0.0017,-0.0029,-0.9874,-0.0137,-0.0024, 0.0138,-0.0084,-0.0138,-0.0118, 0.0170, 0.0024, 0.2041
20-Jan-2019 13:01:26.911, 0.0031,-0.0027,-0.9869,-0.0152,-0.0005, 0.0125,-0.0084,-0.0149,-0.0118, 0.0170, 0.0024, 0.2041
20-Jan-2019 13:01:26.921, 0.0041,-0.0045,-0.9865,-0.0139,-0.0003, 0.0130,-0.0094,-0.0149,-0.0118, 0.0169, 0.0024, 0.2041
20-Jan-2019 13:01:26.931, 0.0044,-0.0053,-0.9866,-0.0128,-0.0021, 0.0134,-0.0094,-0.0128,-0.0118, 0.0169, 0.0024, 0.2041
20-Jan-2019 13:01:26.941, 0.0027,-0.0058,-0.9881,-0.0126,-0.0028, 0.0132,-0.0105,-0.0138,-0.0129, 0.0169, 0.0024, 0.2041
20-Jan-2019 13:01:26.951, 0.0007,-0.0057,-0.9869,-0.0142,-0.0034, 0.0118,-0.0094,-0.0149,-0.0129, 0.0169, 0.0024, 0.2041
20-Jan-2019 13:01:26.961, 0.0018,-0.0041,-0.9869,-0.0161,-0.0032, 0.0129,-0.0083,-0.0159,-0.0118, 0.0169, 0.0025, 0.2041
20-Jan-2019 13:01:26.971, 0.0036,-0.0040,-0.9865,-0.0151,-0.0016, 0.0129,-0.0073,-0.0138,-0.0128, 0.0169, 0.0025, 0.2041
20-Jan-2019 13:01:26.981, 0.0030,-0.0038,-0.9872,-0.0132,-0.0015, 0.0134,-0.0084,-0.0128,-0.0118, 0.0169, 0.0025, 0.2041
20-Jan-2019 13:01:26.991, 0.0026,-0.0029,-0.9884,-0.0138,-0.0013, 0.0127,-0.0094,-0.0138,-0.0118, 0.0169, 0.0025, 0.2041
20-Jan-2019 13:01:27.001, 0.0021,-0.0029,-0.9870,-0.0142,-0.0004, 0.0115,-0.0105,-0.0138,-0.0129, 0.0168, 0.0025, 0.2041
20-Jan-2019 13:01:27.011, 0.0035,-0.0052,-0.9868,-0.0147,-0.0004, 0.0129,-0.0094,-0.0149,-0.0097, 0.0168, 0.0025, 0.2041
20-Jan-2019 13:01:27.021, 0.0042,-0.0071,-0.9866,-0.0133,-0.0027, 0.0131,-0.0084,-0.0149,-0.0107, 0.0168, 0.0025, 0.2041
20-Jan-2019 13:01:27.031, 0.0025,-0.0057,-0.9867,-0.0126,-0.0046, 0.0132,-0.0115,-0.0138,-0.0129, 0.0168, 0.0025, 0.2041
20-Jan-2019 13:01:27.041, 0.0023,-0.0041,-0.9862,-0.0143,-0.0032, 0.0132,-0.0105,-0.0138,-0.0107, 0.0168, 0.0025, 0.2041
20-Jan-2019 13:01:27.051, 0.0041,-0.0031,-0.9870,-0.0144,-0.0016, 0.0137,-0.0105,-0.0149,-0.0118, 0.0168, 0.0025, 0.2041
20-Jan-2019 13:01:27.060, 0.0034,-0.0036,-0.9861,-0.0126,-0.0006, 0.0129,-0.0105,-0.0160,-0.0118, 0.0168, 0.0025, 0.2041
20-Jan-2019 13:01:27.070, 0.0033,-0.0037,-0.9861,-0.0133,-0.0012, 0.0138,-0.0084,-0.0138,-0.0118, 0.0168, 0.0025, 0.2041
20-Jan-2019 13:01:27.080, 0.0023,-0.0050,-0.9875,-0.0135,-0.0013, 0.0138,-0.0094,-0.0117,-0.0118, 0.0168, 0.0024, 0.2041
20-Jan-2019 13:01:27.090, 0.0030,-0.0050,-0.9867,-0.0144,-0.0025, 0.0123,-0.0084,-0.0138,-0.0129, 0.0168, 0.0025, 0.2041
20-Jan-2019 13:01:27.100, 0.0040,-0.0047,-0.9867,-0.0137,-0.0025, 0.0131,-0.0094,-0.0138,-0.0139, 0.0168, 0.0025, 0.2041
20-Jan-2019 13:01:27.110, 0.0047,-0.0047,-0.9867,-0.0127,-0.0022, 0.0132,-0.0083,-0.0149,-0.0129, 0.0167, 0.0025, 0.2041
20-Jan-2019 13:01:27.120, 0.0038,-0.0040,-0.9877,-0.0120,-0.0022, 0.0132,-0.0084,-0.0127,-0.0128, 0.0167, 0.0025, 0.2041
20-Jan-2019 13:01:27.130, 0.0019,-0.0040,-0.9872,-0.0129,-0.0016, 0.0122,-0.0073,-0.0159,-0.0107, 0.0167, 0.0025, 0.2041
20-Jan-2019 13:01:27.140, 0.0021,-0.0030,-0.9859,-0.0148,-0.0016, 0.0126,-0.0105,-0.0160,-0.0129, 0.0167, 0.0025, 0.2041
20-Jan-2019 13:01:27.150, 0.0028,-0.0040,-0.9857,-0.0146,-0.0005, 0.0140,-0.0094,-0.0138,-0.0129, 0.0167, 0.0025, 0.2041
20-Jan-2019 13:01:27.160, 0.0034,-0.0054,-0.9867,-0.0139,-0.0015, 0.0141,-0.0073,-0.0159,-0.0128, 0.0167, 0.0025, 0.2041
20-Jan-2019 13:01:27.170, 0.0030,-0.0067,-0.9877,-0.0133,-0.0029, 0.0131,-0.0105,-0.0128,-0.0097, 0.0167, 0.0025, 0.2041
20-Jan-2019 13:01:27.180, 0.0039,-0.0060,-0.9873,-0.0136,-0.0042, 0.0121,-0.0105,-0.0160,-0.0118, 0.0167, 0.0025, 0.2041
20-Jan-2019 13:01:27.190, 0.0036,-0.0045,-0.9864,-0.0128,-0.0036, 0.0126,-0.0094,-0.0128,-0.0118, 0.0167, 0.0025, 0.2041
20-Jan-2019 13:01:27.200, 0.0031,-0.0019,-0.9873,-0.0131,-0.0020, 0.0135,-0.0084,-0.0149,-0.0118, 0.0167, 0.0025, 0.2041
20-Jan-2019 13:01:27.210, 0.0031,-0.0024,-0.9872,-0.0135, 0.0006, 0.0126,-0.0094,-0.0149,-0.0107, 0.0166, 0.0025, 0.2041
20-Jan-2019 13:01:27.220, 0.0029,-0.0047,-0.9870,-0.0135, 0.0000, 0.0126,-0.0094,-0.0160,-0.0118, 0.0166, 0.0025, 0.2041
20-Jan-2019 13:01:27.229, 0.0029,-0.0054,-0.9872,-0.0137,-0.0023, 0.0129,-0.0094,-0.0117,-0.0129, 0.0166, 0.0025, 0.2041
20-Jan-2019 13:01:27.239, 0.0037,-0.0048,-0.9875,-0.0137,-0.0030, 0.0127,-0.0105,-0.0138,-0.0118, 0.0166, 0.0024, 0.2041
20-Jan-2019 13:01:27.250, 0.0036,-0.0058,-0.9869,-0.0129,-0.0023, 0.0123,-0.0094,-0.0149,-0.0107, 0.0166, 0.0024, 0.2042
20-Jan-2019 13:01:27.259, 0.0040,-0.0050,-0.9863,-0.0130,-0.0033, 0.0129,-0.0094,-0.0117,-0.0129, 0.0166, 0.0025, 0.2042
20-Jan-2019 13:01:27.269, 0.0043,-0.0050,-0.9880,-0.0126,-0.0025, 0.0135,-0.0084,-0.0138,-0.0129, 0.0166, 0.0025, 0.2041
20-Jan-2019 13:01:27.279, 0.0030,-0.0040,-0.9874,-0.0122,-0.0025, 0.0119,-0.0084,-0.0149,-0.0118, 0.0166, 0.0025, 0.2041
20-Jan-2019 13:01:27.289, 0.0026,-0.0025,-0.9865,-0.0136,-0.0015, 0.0125,-0.0084,-0.0138,-0.0118, 0.0166, 0.0025, 0.2041
20-Jan-2019 13:01:27.300, 0.0024,-0.0043,-0.9866,-0.0139,-0.0000, 0.0133,-0.0105,-0.0149,-0.0118, 0.0165, 0.0025, 0.2041
20-Jan-2019 13:01:27.309, 0.0019,-0.0050,-0.9871,-0.0141,-0.0018, 0.0132,-0.0105,-0.0149,-0.0118, 0.0165, 0.0025, 0.2041
20-Jan-2019 13:01:27.319, 0.0027,-0.0046,-0.9884,-0.0146,-0.0025, 0.0127,-0.0094,-0.0138,-0.0118, 0.0165, 0.0025, 0.2041
20-Jan-2019 13:01:27.329, 0.0040,-0.0039,-0.9875,-0.0138,-0.0022, 0.0115,-0.0083,-0.0159,-0.0139, 0.0165, 0.0025, 0.2041
20-Jan-2019 13:01:27.339, 0.0043,-0.0036,-0.9867,-0.0124,-0.0014, 0.0124,-0.0094,-0.0149,-0.0118, 0.0165, 0.0025, 0.2041
20-Jan-2019 13:01:27.349, 0.0028,-0.0034,-0.9864,-0.0122,-0.0011, 0.0132,-0.0094,-0.0170,-0.0118, 0.0164, 0.0025, 0.2041
20-Jan-2019 13:01:27.359, 0.0027,-0.0059,-0.9898,-0.0136,-0.0009, 0.0134,-0.0094,-0.0138,-0.0118, 0.0164, 0.0025, 0.2041
20-Jan-2019 13:01:27.369, 0.0025,-0.0073,-0.9919,-0.0137,-0.0034, 0.0100,-0.0083,-0.0159,-0.0129, 0.0164, 0.0025, 0.2041
20-Jan-2019 13:01:27.379, 0.0021,-0.0059,-0.9929,-0.0139,-0.0048, 0.0080,-0.0094,-0.0138,-0.0129, 0.0164, 0.0025, 0.2041
20-Jan-2019 13:01:27.388, 0.0025,-0.0039,-0.9895,-0.0142,-0.0034, 0.0069,-0.0073,-0.0159,-0.0118, 0.0164, 0.0025, 0.2041
20-Jan-2019 13:01:27.399, 0.0043,-0.0040,-0.9863,-0.0138,-0.0014, 0.0104,-0.0073,-0.0159,-0.0128, 0.0163, 0.0025, 0.2041
20-Jan-2019 13:01:27.408, 0.0056,-0.0045,-0.9830,-0.0120,-0.0015, 0.0135,-0.0094,-0.0159,-0.0129, 0.0163, 0.0025, 0.2041
20-Jan-2019 13:01:27.418, 0.0038,-0.0037,-0.9813,-0.0107,-0.0019, 0.0168,-0.0084,-0.0138,-0.0118, 0.0163, 0.0025, 0.2041
20-Jan-2019 13:01:27.428, 0.0023,-0.0014,-0.9824,-0.0125,-0.0012, 0.0186,-0.0094,-0.0138,-0.0129, 0.0163, 0.0025, 0.2041
20-Jan-2019 13:01:27.438, 0.0020,-0.0025,-0.9853,-0.0140, 0.0012, 0.0175,-0.0084,-0.0138,-0.0118, 0.0163, 0.0025, 0.2041
20-Jan-2019 13:01:27.449, 0.0010,-0.0046,-0.9870,-0.0143, 0.0000, 0.0146,-0.0094,-0.0149,-0.0107, 0.0163, 0.0025, 0.2041
20-Jan-2019 13:01:27.458, 0.0005,-0.0040,-0.9868,-0.0153,-0.0021, 0.0128,-0.0094,-0.0149,-0.0129, 0.0163, 0.0025, 0.2041
20-Jan-2019 13:01:27.468, 0.0034,-0.0048,-0.9866,-0.0157,-0.0015, 0.0130,-0.0094,-0.0128,-0.0097, 0.0163, 0.0025, 0.2041
20-Jan-2019 13:01:27.478, 0.0064,-0.0038,-0.9858,-0.0129,-0.0023, 0.0132,-0.0094,-0.0149,-0.0118, 0.0163, 0.0025, 0.2041
20-Jan-2019 13:01:27.488, 0.0065,-0.0044,-0.9868,-0.0099,-0.0013, 0.0140,-0.0084,-0.0138,-0.0107, 0.0162, 0.0025, 0.2041
20-Jan-2019 13:01:27.498, 0.0031,-0.0038,-0.9877,-0.0097,-0.0019, 0.0130,-0.0094,-0.0128,-0.0118, 0.0162, 0.0025, 0.2041
20-Jan-2019 13:01:27.508, 0.0002,-0.0055,-0.9882,-0.0131,-0.0013, 0.0121,-0.0105,-0.0138,-0.0118, 0.0162, 0.0025, 0.2041
20-Jan-2019 13:01:27.518, 0.0008,-0.0053,-0.9872,-0.0161,-0.0030, 0.0117,-0.0083,-0.0149,-0.0129, 0.0162, 0.0025, 0.2041
20-Jan-2019 13:01:27.528, 0.0036,-0.0031,-0.9863,-0.0154,-0.0028, 0.0127,-0.0105,-0.0149,-0.0118, 0.0162, 0.0025, 0.2041
20-Jan-2019 13:01:27.538, 0.0028,-0.0045,-0.9856,-0.0125,-0.0006, 0.0136,-0.0084,-0.0149,-0.0107, 0.0162, 0.0025, 0.2042
20-Jan-2019 13:01:27.549, 0.0052,-0.0048,-0.9855,-0.0134,-0.0019, 0.0142,-0.0094,-0.0128,-0.0118, 0.0162, 0.0025, 0.2042
20-Jan-2019 13:01:27.557, 0.0050,-0.0044,-0.9869,-0.0110,-0.0022, 0.0143,-0.0105,-0.0128,-0.0118, 0.0162, 0.0025, 0.2042
20-Jan-2019 13:01:27.567, 0.0021,-0.0027,-0.9870,-0.0111,-0.0019, 0.0130,-0.0105,-0.0149,-0.0118, 0.0162, 0.0025, 0.2042
20-Jan-2019 13:01:27.578, 0.0025,-0.0034,-0.9866,-0.0140,-0.0002, 0.0129,-0.0105,-0.0149,-0.0129, 0.0161, 0.0025, 0.2041
20-Jan-2019 13:01:27.587, 0.0032,-0.0053,-0.9868,-0.0137,-0.0009, 0.0132,-0.0094,-0.0128,-0.0118, 0.0161, 0.0025, 0.2041
20-Jan-2019 13:01:27.597, 0.0012,-0.0059,-0.9867,-0.0130,-0.0028, 0.0130,-0.0083,-0.0159,-0.0118, 0.0161, 0.0025, 0.2042
20-Jan-2019 13:01:27.607, 0.0015,-0.0059,-0.9877,-0.0149,-0.0033, 0.0131,-0.0094,-0.0149,-0.0118, 0.0161, 0.0025, 0.2042
20-Jan-2019 13:01:27.617, 0.0040,-0.0056,-0.9870,-0.0145,-0.0033, 0.0121,-0.0094,-0.0159,-0.0129, 0.0161, 0.0025, 0.2042
20-Jan-2019 13:01:27.627, 0.0023,-0.0051,-0.9870,-0.0121,-0.0030, 0.0129,-0.0094,-0.0138,-0.0118, 0.0161, 0.0025, 0.2042
20-Jan-2019 13:01:27.637, 0.0031,-0.0032,-0.9868,-0.0138,-0.0026, 0.0128,-0.0094,-0.0160,-0.0118, 0.0161, 0.0025, 0.2042
20-Jan-2019 13:01:27.647, 0.0053,-0.0033,-0.9874,-0.0130,-0.0007, 0.0131,-0.0105,-0.0117,-0.0139, 0.0161, 0.0025, 0.2041
20-Jan-2019 13:01:27.657, 0.0023,-0.0034,-0.9878,-0.0107,-0.0007, 0.0124,-0.0084,-0.0149,-0.0118, 0.0161, 0.0025, 0.2041
20-Jan-2019 13:01:27.667, 0.0035,-0.0021,-0.9852,-0.0138,-0.0009, 0.0120,-0.0084,-0.0149,-0.0118, 0.0160, 0.0025, 0.2042
20-Jan-2019 13:01:27.677, 0.0027,-0.0041,-0.9859,-0.0125, 0.0004, 0.0146,-0.0105,-0.0149,-0.0118, 0.0160, 0.0025, 0.2042
20-Jan-2019 13:01:27.686, 0.0011,-0.0053,-0.9874,-0.0134,-0.0015, 0.0140,-0.0094,-0.0149,-0.0118, 0.0160, 0.0025, 0.2042
20-Jan-2019 13:01:27.697, 0.0032,-0.0056,-0.9859,-0.0149,-0.0028, 0.0125,-0.0094,-0.0138,-0.0097, 0.0160, 0.0025, 0.2042
20-Jan-2019 13:01:27.706, 0.0051,-0.0063,-0.9881,-0.0128,-0.0031, 0.0140,-0.0094,-0.0149,-0.0118, 0.0160, 0.0025, 0.2042
20-Jan-2019 13:01:27.716, 0.0056,-0.0051,-0.9872,-0.0108,-0.0038, 0.0118,-0.0094,-0.0149,-0.0129, 0.0160, 0.0025, 0.2042
20-Jan-2019 13:01:27.726, 0.0033,-0.0022,-0.9864,-0.0104,-0.0026, 0.0126,-0.0094,-0.0149,-0.0118, 0.0160, 0.0025, 0.2042
20-Jan-2019 13:01:27.736, 0.0020,-0.0038,-0.9869,-0.0127, 0.0003, 0.0135,-0.0094,-0.0138,-0.0129, 0.0160, 0.0025, 0.2042
20-Jan-2019 13:01:27.746, 0.0032,-0.0048,-0.9859,-0.0140,-0.0013, 0.0130,-0.0084,-0.0138,-0.0107, 0.0159, 0.0025, 0.2042
20-Jan-2019 13:01:27.756, 0.0031,-0.0060,-0.9871,-0.0127,-0.0023, 0.0139,-0.0105,-0.0138,-0.0118, 0.0159, 0.0025, 0.2042
20-Jan-2019 13:01:27.766, 0.0017,-0.0055,-0.9876,-0.0129,-0.0035, 0.0127,-0.0084,-0.0138,-0.0107, 0.0159, 0.0025, 0.2042
20-Jan-2019 13:01:27.776, 0.0034,-0.0045,-0.9863,-0.0142,-0.0030, 0.0122,-0.0094,-0.0149,-0.0118, 0.0159, 0.0025, 0.2042
20-Jan-2019 13:01:27.786, 0.0020,-0.0041,-0.9851,-0.0125,-0.0020, 0.0136,-0.0115,-0.0149,-0.0129, 0.0159, 0.0025, 0.2042
20-Jan-2019 13:01:27.796, 0.0023,-0.0029,-0.9874,-0.0139,-0.0016, 0.0148,-0.0084,-0.0138,-0.0107, 0.0159, 0.0025, 0.2042
20-Jan-2019 13:01:27.806, 0.0039,-0.0026,-0.9863,-0.0135,-0.0003, 0.0124,-0.0084,-0.0149,-0.0118, 0.0159, 0.0025, 0.2042
20-Jan-2019 13:01:27.816, 0.0052,-0.0043,-0.9874,-0.0120,-0.0001, 0.0136,-0.0094,-0.0149,-0.0129, 0.0159, 0.0025, 0.2042
20-Jan-2019 13:01:27.826, 0.0047,-0.0058,-0.9870,-0.0107,-0.0018, 0.0125,-0.0084,-0.0138,-0.0118, 0.0159, 0.0025, 0.2042
20-Jan-2019 13:01:27.836, 0.0034,-0.0050,-0.9858,-0.0111,-0.0033, 0.0129,-0.0084,-0.0149,-0.0097, 0.0159, 0.0025, 0.2042
20-Jan-2019 13:01:27.846, 0.0010,-0.0056,-0.9873,-0.0125,-0.0024, 0.0141,-0.0094,-0.0149,-0.0107, 0.0159, 0.0025, 0.2042
20-Jan-2019 13:01:27.855, 0.0014,-0.0053,-0.9863,-0.0148,-0.0031, 0.0126,-0.0105,-0.0160,-0.0118, 0.0158, 0.0025, 0.2042
20-Jan-2019 13:01:27.867, 0.0023,-0.0029,-0.9873,-0.0144,-0.0028, 0.0136,-0.0084,-0.0149,-0.0118, 0.0158, 0.0025, 0.2042
20-Jan-2019 13:01:27.875, 0.0017,-0.0033,-0.9869,-0.0135,-0.0004, 0.0126,-0.0094,-0.0138,-0.0107, 0.0158, 0.0025, 0.2042
20-Jan-2019 13:01:27.885, 0.0047,-0.0058,-0.9859,-0.0141,-0.0008, 0.0129,-0.0094,-0.0149,-0.0118, 0.0158, 0.0025, 0.2042
20-Jan-2019 13:01:27.896, 0.0040,-0.0041,-0.9857,-0.0111,-0.0032, 0.0140,-0.0105,-0.0138,-0.0129, 0.0158, 0.0025, 0.2042
20-Jan-2019 13:01:27.905, 0.0004,-0.0023,-0.9853,-0.0118,-0.0016, 0.0142,-0.0094,-0.0149,-0.0118, 0.0158, 0.0025, 0.2042
20-Jan-2019 13:01:27.915, 0.0036,-0.0028,-0.9878,-0.0154, 0.0002, 0.0145,-0.0084,-0.0138,-0.0118, 0.0158, 0.0025, 0.2042
20-Jan-2019 13:01:27.925, 0.0043,-0.0046,-0.9874,-0.0122,-0.0002, 0.0120,-0.0094,-0.0149,-0.0139, 0.0158, 0.0025, 0.2042
20-Jan-2019 13:01:27.935, 0.0028,-0.0064,-0.9871,-0.0114,-0.0021, 0.0125,-0.0083,-0.0149,-0.0129, 0.0157, 0.0025, 0.2042
20-Jan-2019 13:01:27.945, 0.0028,-0.0069,-0.9865,-0.0130,-0.0039, 0.0128,-0.0115,-0.0160,-0.0118, 0.0157, 0.0025, 0.2042
20-Jan-2019 13:01:27.955, 0.0013,-0.0052,-0.9870,-0.0129,-0.0043, 0.0134,-0.0084,-0.0149,-0.0118, 0.0157, 0.0025, 0.2042
20-Jan-2019 13:01:27.965, 0.0031,-0.0019,-0.9863,-0.0144,-0.0027, 0.0128,-0.0105,-0.0128,-0.0118, 0.0157, 0.0025, 0.2042
20-Jan-2019 13:01:27.975, 0.0065,-0.0024,-0.9865,-0.0126, 0.0006, 0.0135,-0.0094,-0.0149,-0.0118, 0.0157, 0.0025, 0.2042
20-Jan-2019 13:01:27.985, 0.0047,-0.0042,-0.9878,-0.0092, 0.0001, 0.0134,-0.0094,-0.0160,-0.0118, 0.0156, 0.0025, 0.2042
20-Jan-2019 13:01:27.995, 0.0006,-0.0038,-0.9852,-0.0110,-0.0016, 0.0121,-0.0105,-0.0138,-0.0139, 0.0156, 0.0025, 0.2042
20-Jan-2019 13:01:28.005, 0.0002,-0.0051,-0.9882,-0.0150,-0.0013, 0.0146,-0.0094,-0.0138,-0.0129, 0.0156, 0.0025, 0.2042
20-Jan-2019 13:01:28.015, 0.0011,-0.0058,-0.9871,-0.0154,-0.0026, 0.0117,-0.0105,-0.0160,-0.0118, 0.0156, 0.0025, 0.2042
20-Jan-2019 13:01:28.025, 0.0047,-0.0042,-0.9879,-0.0145,-0.0032, 0.0128,-0.0094,-0.0170,-0.0118, 0.0156, 0.0025, 0.2042
20-Jan-2019 13:01:28.034, 0.0048,-0.0038,-0.9865,-0.0109,-0.0017, 0.0120,-0.0084,-0.0138,-0.0129, 0.0156, 0.0025, 0.2042
20-Jan-2019 13:01:28.044, 0.0016,-0.0014,-0.9872,-0.0108,-0.0013, 0.0134,-0.0094,-0.0138,-0.0118, 0.0156, 0.0025, 0.2042
20-Jan-2019 13:01:28.054, 0.0017,-0.0017,-0.9861,-0.0139, 0.0011, 0.0127,-0.0105,-0.0170,-0.0129, 0.0155, 0.0025, 0.2042
20-Jan-2019 13:01:28.064, 0.0032,-0.0039,-0.9874,-0.0138, 0.0008, 0.0137,-0.0094,-0.0138,-0.0107, 0.0155, 0.0025, 0.2042
20-Jan-2019 13:01:28.074, 0.0058,-0.0067,-0.9872,-0.0123,-0.0014, 0.0125,-0.0083,-0.0170,-0.0118, 0.0155, 0.0025, 0.2042
20-Jan-2019 13:01:28.084, 0.0051,-0.0079,-0.9863,-0.0097,-0.0041, 0.0127,-0.0073,-0.0159,-0.0118, 0.0155, 0.0025, 0.2042
20-Jan-2019 13:01:28.094, 0.0029,-0.0070,-0.9883,-0.0104,-0.0054, 0.0136,-0.0105,-0.0149,-0.0107, 0.0155, 0.0025, 0.2042
20-Jan-2019 13:01:28.103, 0.0005,-0.0038,-0.9860,-0.0125,-0.0045, 0.0115,-0.0094,-0.0149,-0.0118, 0.0155, 0.0025, 0.2042
20-Jan-2019 13:01:28.113, 0.0014,-0.0005,-0.9852,-0.0150,-0.0012, 0.0139,-0.0094,-0.0138,-0.0107, 0.0155, 0.0025, 0.2042
20-Jan-2019 13:01:28.124, 0.0025,-0.0016,-0.9878,-0.0140, 0.0020, 0.0147,-0.0094,-0.0149,-0.0118, 0.0154, 0.0025, 0.2042
20-Jan-2019 13:01:28.134, 0.0057,-0.0033,-0.9878,-0.0129, 0.0009, 0.0121,-0.0094,-0.0159,-0.0129, 0.0154, 0.0025, 0.2042
20-Jan-2019 13:01:28.144, 0.0039,-0.0062,-0.9866,-0.0097,-0.0007, 0.0121,-0.0105,-0.0138,-0.0118, 0.0154, 0.0025, 0.2042
20-Jan-2019 13:01:28.153, 0.0014,-0.0065,-0.9882,-0.0115,-0.0036, 0.0132,-0.0105,-0.0138,-0.0107, 0.0154, 0.0025, 0.2042
20-Jan-2019 13:01:28.164, 0.0014,-0.0053,-0.9858,-0.0140,-0.0040, 0.0117,-0.0105,-0.0128,-0.0118, 0.0154, 0.0025, 0.2042
20-Jan-2019 13:01:28.174, 0.0010,-0.0047,-0.9875,-0.0140,-0.0028, 0.0141,-0.0084,-0.0138,-0.0129, 0.0154, 0.0025, 0.2042
20-Jan-2019 13:01:28.183, 0.0019,-0.0038,-0.9888,-0.0144,-0.0022, 0.0123,-0.0084,-0.0138,-0.0129, 0.0154, 0.0025, 0.2042
20-Jan-2019 13:01:28.194, 0.0042,-0.0034,-0.9868,-0.0135,-0.0012, 0.0110,-0.0084,-0.0149,-0.0118, 0.0154, 0.0025, 0.2042
20-Jan-2019 13:01:28.203, 0.0019,-0.0032,-0.9871,-0.0112,-0.0008, 0.0131,-0.0094,-0.0138,-0.0118, 0.0154, 0.0025, 0.2042
20-Jan-2019 13:01:28.213, 0.0031,-0.0049,-0.9882,-0.0134,-0.0007, 0.0128,-0.0094,-0.0138,-0.0118, 0.0154, 0.0025, 0.2042
20-Jan-2019 13:01:28.223, 0.0057,-0.0056,-0.9870,-0.0123,-0.0024, 0.0117,-0.0094,-0.0138,-0.0118, 0.0154, 0.0025, 0.2042
20-Jan-2019 13:01:28.233, 0.0046,-0.0047,-0.9855,-0.0097,-0.0030, 0.0129,-0.0084,-0.0149,-0.0118, 0.0154, 0.0025, 0.2042
20-Jan-2019 13:01:28.243, 0.0035,-0.0033,-0.9868,-0.0107,-0.0022, 0.0144,-0.0094,-0.0149,-0.0118, 0.0154, 0.0025, 0.2042
20-Jan-2019 13:01:28.253, 0.0033,-0.0060,-0.9886,-0.0119,-0.0008, 0.0131,-0.0105,-0.0149,-0.0129, 0.0153, 0.0025, 0.2042
20-Jan-2019 13:01:28.262, 0.0007,-0.0061,-0.9845,-0.0121,-0.0035, 0.0112,-0.0094,-0.0149,-0.0129, 0.0153, 0.0025, 0.2042
20-Jan-2019 13:01:28.273, 0.0009,-0.0055,-0.9867,-0.0146,-0.0036, 0.0154,-0.0094,-0.0138,-0.0129, 0.0153, 0.0025, 0.2042
20-Jan-2019 13:01:28.282, 0.0043,-0.0023,-0.9859,-0.0145,-0.0029, 0.0132,-0.0094,-0.0149,-0.0129, 0.0153, 0.0025, 0.2042
20-Jan-2019 13:01:28.293, 0.0047,-0.0029,-0.9872,-0.0110, 0.0002, 0.0140,-0.0084,-0.0138,-0.0118, 0.0153, 0.0025, 0.2042
20-Jan-2019 13:01:28.302, 0.0059,-0.0045,-0.9864,-0.0106,-0.0004, 0.0127,-0.0105,-0.0149,-0.0118, 0.0153, 0.0025, 0.2042
20-Jan-2019 13:01:28.312, 0.0038,-0.0051,-0.9867,-0.0094,-0.0020, 0.0135,-0.0084,-0.0138,-0.0129, 0.0153, 0.0025, 0.2042
20-Jan-2019 13:01:28.322, 0.0012,-0.0057,-0.9878,-0.0115,-0.0026, 0.0132,-0.0083,-0.0159,-0.0118, 0.0153, 0.0026, 0.2042
20-Jan-2019 13:01:28.332, 0.0018,-0.0066,-0.9870,-0.0141,-0.0032, 0.0121,-0.0094,-0.0149,-0.0129, 0.0153, 0.0026, 0.2042
20-Jan-2019 13:01:28.342, 0.0021,-0.0055,-0.9856,-0.0135,-0.0040, 0.0129,-0.0073,-0.0149,-0.0118, 0.0152, 0.0026, 0.2042
20-Jan-2019 13:01:28.352, 0.0020,-0.0035,-0.9867,-0.0131,-0.0029, 0.0143,-0.0073,-0.0149,-0.0128, 0.0152, 0.0026, 0.2042
20-Jan-2019 13:01:28.362, 0.0016,-0.0020,-0.9879,-0.0132,-0.0009, 0.0132,-0.0105,-0.0138,-0.0118, 0.0152, 0.0026, 0.2042
20-Jan-2019 13:01:28.372, 0.0020,-0.0034,-0.9881,-0.0137, 0.0006, 0.0119,-0.0105,-0.0138,-0.0107, 0.0152, 0.0026, 0.2042
20-Jan-2019 13:01:28.382, 0.0034,-0.0034,-0.9875,-0.0132,-0.0008, 0.0118,-0.0094,-0.0128,-0.0118, 0.0152, 0.0026, 0.2042
20-Jan-2019 13:01:28.392, 0.0058,-0.0034,-0.9880,-0.0119,-0.0008, 0.0123,-0.0094,-0.0149,-0.0118, 0.0152, 0.0026, 0.2042
20-Jan-2019 13:01:28.402, 0.0050,-0.0038,-0.9860,-0.0094,-0.0008, 0.0119,-0.0094,-0.0149,-0.0118, 0.0152, 0.0026, 0.2042
20-Jan-2019 13:01:28.412, 0.0030,-0.0054,-0.9869,-0.0101,-0.0012, 0.0139,-0.0084,-0.0149,-0.0118, 0.0152, 0.0026, 0.2042
20-Jan-2019 13:01:28.422, 0.0016,-0.0070,-0.9874,-0.0122,-0.0028, 0.0130,-0.0116,-0.0128,-0.0107, 0.0152, 0.0026, 0.2042
20-Jan-2019 13:01:28.431, 0.0017,-0.0072,-0.9858,-0.0136,-0.0044, 0.0124,-0.0094,-0.0160,-0.0107, 0.0152, 0.0026, 0.2042
20-Jan-2019 13:01:28.442, 0.0045,-0.0057,-0.9864,-0.0134,-0.0046, 0.0140,-0.0094,-0.0149,-0.0097, 0.0152, 0.0026, 0.2042
20-Jan-2019 13:01:28.452, 0.0045,-0.0051,-0.9866,-0.0106,-0.0031, 0.0135,-0.0084,-0.0138,-0.0118, 0.0152, 0.0026, 0.2042
20-Jan-2019 13:01:28.461, 0.0042,-0.0037,-0.9870,-0.0107,-0.0025, 0.0133,-0.0094,-0.0149,-0.0107, 0.0151, 0.0026, 0.2042
20-Jan-2019 13:01:28.472, 0.0039,-0.0023,-0.9867,-0.0110,-0.0011, 0.0128,-0.0094,-0.0128,-0.0129, 0.0151, 0.0026, 0.2042
20-Jan-2019 13:01:28.481, 0.0027,-0.0014,-0.9874,-0.0112, 0.0003, 0.0131,-0.0083,-0.0149,-0.0129, 0.0151, 0.0026, 0.2042
20-Jan-2019 13:01:28.492, 0.0022,-0.0033,-0.9859,-0.0129,-0.0007, 0.0140,-0.0094,-0.0170,-0.0118, 0.0151, 0.0026, 0.2042
20-Jan-2019 13:01:28.501, 0.0038,-0.0069,-0.9868,-0.0129,-0.0007, 0.0140,-0.0084,-0.0149,-0.0118, 0.0151, 0.0026, 0.2042
20-Jan-2019 13:01:28.511, 0.0036,-0.0086,-0.9870,-0.0113,-0.0043, 0.0131,-0.0105,-0.0138,-0.0118, 0.0151, 0.0026, 0.2042
20-Jan-2019 13:01:28.521, 0.0020,-0.0070,-0.9872,-0.0115,-0.0060, 0.0128,-0.0084,-0.0149,-0.0107, 0.0151, 0.0026, 0.2042
20-Jan-2019 13:01:28.531, 0.0028,-0.0031,-0.9879,-0.0131,-0.0043, 0.0127,-0.0073,-0.0149,-0.0118, 0.0151, 0.0026, 0.2042
20-Jan-2019 13:01:28.541, 0.0019, 0.0011,-0.9861,-0.0123,-0.0004, 0.0120,-0.0094,-0.0160,-0.0118, 0.0150, 0.0026, 0.2042
20-Jan-2019 13:01:28.551, 0.0036,-0.0006,-0.9871,-0.0131, 0.0037, 0.0138,-0.0084,-0.0149,-0.0118, 0.0150, 0.0026, 0.2042
20-Jan-2019 13:01:28.561, 0.0038,-0.0046,-0.9857,-0.0114, 0.0021, 0.0127,-0.0105,-0.0149,-0.0129, 0.0150, 0.0026, 0.2042
20-Jan-2019 13:01:28.571, 0.0027,-0.0087,-0.9867,-0.0112,-0.0020, 0.0142,-0.0105,-0.0160,-0.0118, 0.0150, 0.0026, 0.2042
20-Jan-2019 13:01:28.580, 0.0030,-0.0103,-0.9870,-0.0123,-0.0060, 0.0132,-0.0116,-0.0138,-0.0118, 0.0150, 0.0026, 0.2042
20-Jan-2019 13:01:28.591, 0.0029,-0.0078,-0.9871,-0.0120,-0.0077, 0.0129,-0.0094,-0.0138,-0.0129, 0.0150, 0.0026, 0.2042
20-Jan-2019 13:01:28.601, 0.0023,-0.0040,-0.9868,-0.0120,-0.0051, 0.0128,-0.0094,-0.0128,-0.0129, 0.0150, 0.0026, 0.2042
20-Jan-2019 13:01:28.610, 0.0037,-0.0001,-0.9869,-0.0127,-0.0014, 0.0130,-0.0094,-0.0138,-0.0129, 0.0150, 0.0026, 0.2042
20-Jan-2019 13:01:28.620, 0.0049, 0.0000,-0.9864,-0.0112, 0.0025, 0.0130,-0.0094,-0.0138,-0.0129, 0.0149, 0.0026, 0.2042
20-Jan-2019 13:01:28.630, 0.0031,-0.0008,-0.9868,-0.0100, 0.0027, 0.0135,-0.0094,-0.0138,-0.0118, 0.0149, 0.0026, 0.2042
20-Jan-2019 13:01:28.641, 0.0028,-0.0057,-0.9871,-0.0119, 0.0018, 0.0131,-0.0094,-0.0138,-0.0118, 0.0149, 0.0026, 0.2042
20-Jan-2019 13:01:28.650, 0.0040,-0.0083,-0.9871,-0.0122,-0.0030, 0.0128,-0.0105,-0.0138,-0.0129, 0.0149, 0.0026, 0.2042
20-Jan-2019 13:01:28.660, 0.0025,-0.0084,-0.9876,-0.0109,-0.0057, 0.0128,-0.0084,-0.0149,-0.0118, 0.0149, 0.0026, 0.2042
20-Jan-2019 13:01:28.670, 0.0029,-0.0062,-0.9863,-0.0124,-0.0058, 0.0122,-0.0094,-0.0128,-0.0129, 0.0149, 0.0026, 0.2042
20-Jan-2019 13:01:28.680, 0.0028,-0.0038,-0.9878,-0.0120,-0.0035, 0.0136,-0.0094,-0.0138,-0.0129, 0.0149, 0.0026, 0.2042
20-Jan-2019 13:01:28.690, 0.0027,-0.0025,-0.9876,-0.0121,-0.0012, 0.0121,-0.0073,-0.0159,-0.0118, 0.0149, 0.0026, 0.2042
20-Jan-2019 13:01:28.700, 0.0029,-0.0013,-0.9864,-0.0122, 0.0001, 0.0123,-0.0105,-0.0138,-0.0118, 0.0149, 0.0026, 0.2042
20-Jan-2019 13:01:28.710, 0.0028,-0.0019,-0.9868,-0.0120, 0.0013, 0.0135,-0.0094,-0.0149,-0.0107, 0.0149, 0.0026, 0.2042
20-Jan-2019 13:01:28.720, 0.0039,-0.0040,-0.9873,-0.0120, 0.0007, 0.0131,-0.0084,-0.0149,-0.0107, 0.0149, 0.0026, 0.2042
20-Jan-2019 13:01:28.730, 0.0029,-0.0043,-0.9867,-0.0110,-0.0014, 0.0126,-0.0094,-0.0149,-0.0129, 0.0149, 0.0026, 0.2042
20-Jan-2019 13:01:28.740, 0.0019,-0.0070,-0.9870,-0.0119,-0.0017, 0.0132,-0.0094,-0.0149,-0.0129, 0.0149, 0.0026, 0.2042
20-Jan-2019 13:01:28.750, 0.0032,-0.0076,-0.9875,-0.0130,-0.0043, 0.0129,-0.0084,-0.0138,-0.0107, 0.0149, 0.0026, 0.2042
20-Jan-2019 13:01:28.759, 0.0028,-0.0058,-0.9862,-0.0117,-0.0050, 0.0124,-0.0094,-0.0160,-0.0118, 0.0148, 0.0026, 0.2042
20-Jan-2019 13:01:28.770, 0.0037,-0.0030,-0.9860,-0.0120,-0.0031, 0.0137,-0.0094,-0.0138,-0.0118, 0.0148, 0.0026, 0.2042
20-Jan-2019 13:01:28.779, 0.0052,-0.0009,-0.9866,-0.0111,-0.0003, 0.0139,-0.0094,-0.0149,-0.0129, 0.0148, 0.0026, 0.2042
20-Jan-2019 13:01:28.790, 0.0034,-0.0020,-0.9866,-0.0096, 0.0017, 0.0133,-0.0094,-0.0117,-0.0118, 0.0148, 0.0026, 0.2042
20-Jan-2019 13:01:28.799, 0.0039,-0.0044,-0.9861,-0.0114, 0.0006, 0.0133,-0.0094,-0.0149,-0.0118, 0.0148, 0.0026, 0.2042
20-Jan-2019 13:01:28.809, 0.0039,-0.0071,-0.9868,-0.0109,-0.0017, 0.0138,-0.0094,-0.0128,-0.0129, 0.0148, 0.0026, 0.2042
20-Jan-2019 13:01:28.820, 0.0024,-0.0081,-0.9875,-0.0110,-0.0045, 0.0131,-0.0084,-0.0138,-0.0118, 0.0148, 0.0026, 0.2042
20-Jan-2019 13:01:28.829, 0.0043,-0.0061,-0.9864,-0.0124,-0.0055, 0.0124,-0.0094,-0.0159,-0.0129, 0.0148, 0.0026, 0.2042
20-Jan-2019 13:01:28.839, 0.0018,-0.0027,-0.9868,-0.0105,-0.0035, 0.0135,-0.0094,-0.0160,-0.0107, 0.0148, 0.0027, 0.2042
20-Jan-2019 13:01:28.849, 0.0022,-0.0007,-0.9861,-0.0130,-0.0000, 0.0131,-0.0073,-0.0138,-0.0118, 0.0148, 0.0027, 0.2042
20-Jan-2019 13:01:28.859, 0.0024,-0.0019,-0.9866,-0.0125, 0.0020, 0.0138,-0.0094,-0.0160,-0.0118, 0.0148, 0.0027, 0.2042
20-Jan-2019 13:01:28.869, 0.0022,-0.0038,-0.9870,-0.0124, 0.0007, 0.0133,-0.0105,-0.0159,-0.0139, 0.0148, 0.0027, 0.2042
20-Jan-2019 13:01:28.878, 0.0045,-0.0053,-0.9878,-0.0125,-0.0012, 0.0129,-0.0105,-0.0149,-0.0118, 0.0148, 0.0026, 0.2042
20-Jan-2019 13:01:28.889, 0.0031,-0.0079,-0.9873,-0.0102,-0.0026, 0.0121,-0.0094,-0.0149,-0.0107, 0.0147, 0.0026, 0.2042
20-Jan-2019 13:01:28.899, 0.0009,-0.0049,-0.9861,-0.0116,-0.0052, 0.0126,-0.0073,-0.0159,-0.0128, 0.0147, 0.0027, 0.2042
20-Jan-2019 13:01:28.908, 0.0035,-0.0043,-0.9861,-0.0138,-0.0022, 0.0138,-0.0083,-0.0170,-0.0118, 0.0147, 0.0027, 0.2042
20-Jan-2019 13:01:28.919, 0.0023,-0.0020,-0.9867,-0.0111,-0.0017, 0.0138,-0.0094,-0.0149,-0.0118, 0.0147, 0.0027, 0.2042
20-Jan-2019 13:01:28.928, 0.0013,-0.0000,-0.9859,-0.0124, 0.0007, 0.0132,-0.0105,-0.0149,-0.0118, 0.0147, 0.0027, 0.2042
20-Jan-2019 13:01:28.938, 0.0050,-0.0068,-0.9887,-0.0133, 0.0026, 0.0139,-0.0094,-0.0128,-0.0118, 0.0146, 0.0027, 0.2042
20-Jan-2019 13:01:28.948, 0.0037,-0.0062,-0.9881,-0.0096,-0.0041, 0.0112,-0.0105,-0.0138,-0.0118, 0.0146, 0.0026, 0.2042
20-Jan-2019 13:01:28.958, 0.0018,-0.0043,-0.9855,-0.0109,-0.0035, 0.0118,-0.0094,-0.0138,-0.0118, 0.0146, 0.0026, 0.2042
20-Jan-2019 13:01:28.968, 0.0016,-0.0052,-0.9869,-0.0129,-0.0017, 0.0144,-0.0116,-0.0138,-0.0118, 0.0146, 0.0026, 0.2042
20-Jan-2019 13:01:28.978, 0.0022,-0.0040,-0.9865,-0.0130,-0.0025, 0.0130,-0.0105,-0.0149,-0.0129, 0.0146, 0.0026, 0.2042
20-Jan-2019 13:01:28.988, 0.0046,-0.0025,-0.9862,-0.0124,-0.0013, 0.0134,-0.0094,-0.0117,-0.0118, 0.0146, 0.0026, 0.2042
20-Jan-2019 13:01:28.999, 0.0042,-0.0024,-0.9868,-0.0100, 0.0001, 0.0137,-0.0105,-0.0149,-0.0139, 0.0146, 0.0026, 0.2042
20-Jan-2019 13:01:29.008, 0.0032,-0.0039,-0.9881,-0.0104, 0.0002, 0.0130,-0.0105,-0.0138,-0.0129, 0.0146, 0.0026, 0.2042
20-Jan-2019 13:01:29.018, 0.0032,-0.0064,-0.9871,-0.0114,-0.0013, 0.0118,-0.0094,-0.0128,-0.0118, 0.0146, 0.0026, 0.2042
20-Jan-2019 13:01:29.028, 0.0030,-0.0062,-0.9872,-0.0114,-0.0038, 0.0128,-0.0094,-0.0128,-0.0118, 0.0146, 0.0026, 0.2042
20-Jan-2019 13:01:29.038, 0.0039,-0.0063,-0.9864,-0.0116,-0.0036, 0.0127,-0.0084,-0.0149,-0.0118, 0.0146, 0.0026, 0.2042
20-Jan-2019 13:01:29.048, 0.0040,-0.0056,-0.9872,-0.0107,-0.0037, 0.0135,-0.0094,-0.0149,-0.0118, 0.0146, 0.0026, 0.2042
20-Jan-2019 13:01:29.057, 0.0023,-0.0029,-0.9869,-0.0106,-0.0030, 0.0127,-0.0094,-0.0160,-0.0097, 0.0146, 0.0026, 0.2042
20-Jan-2019 13:01:29.068, 0.0018,-0.0009,-0.9853,-0.0123,-0.0002, 0.0130,-0.0094,-0.0160,-0.0107, 0.0145, 0.0026, 0.2042
20-Jan-2019 13:01:29.077, 0.0029,-0.0034,-0.9871,-0.0128, 0.0017, 0.0146,-0.0084,-0.0149,-0.0118, 0.0145, 0.0026, 0.2042
20-Jan-2019 13:01:29.087, 0.0022,-0.0060,-0.9875,-0.0116,-0.0008, 0.0128,-0.0094,-0.0160,-0.0118, 0.0145, 0.0026, 0.2042
20-Jan-2019 13:01:29.097, 0.0039,-0.0067,-0.9875,-0.0123,-0.0033, 0.0124,-0.0084,-0.0149,-0.0118, 0.0145, 0.0026, 0.2042
20-Jan-2019 13:01:29.107, 0.0032,-0.0068,-0.9876,-0.0106,-0.0041, 0.0124,-0.0094,-0.0149,-0.0107, 0.0145, 0.0026, 0.2042
20-Jan-2019 13:01:29.117, 0.0019,-0.0045,-0.9861,-0.0113,-0.0041, 0.0123,-0.0083,-0.0149,-0.0129, 0.0145, 0.0026, 0.2042
20-Jan-2019 13:01:29.127, 0.0032,-0.0029,-0.9877,-0.0126,-0.0019, 0.0137,-0.0094,-0.0138,-0.0118, 0.0145, 0.0026, 0.2042
20-Jan-2019 13:01:29.137, 0.0026,-0.0021,-0.9874,-0.0113,-0.0003, 0.0122,-0.0105,-0.0149,-0.0129, 0.0145, 0.0026, 0.2042
20-Jan-2019 13:01:29.147, 0.0037,-0.0022,-0.9868,-0.0118, 0.0005, 0.0125,-0.0094,-0.0117,-0.0118, 0.0145, 0.0026, 0.2042
20-Jan-2019 13:01:29.157, 0.0045,-0.0045,-0.9855,-0.0108, 0.0004, 0.0131,-0.0084,-0.0138,-0.0107, 0.0145, 0.0026, 0.2042
20-Jan-2019 13:01:29.167, 0.0018,-0.0056,-0.9868,-0.0099,-0.0018, 0.0144,-0.0084,-0.0138,-0.0118, 0.0144, 0.0026, 0.2042
20-Jan-2019 13:01:29.177, 0.0025,-0.0072,-0.9863,-0.0127,-0.0030, 0.0130,-0.0094,-0.0149,-0.0129, 0.0144, 0.0026, 0.2042
20-Jan-2019 13:01:29.187, 0.0048,-0.0081,-0.9856,-0.0120,-0.0046, 0.0136,-0.0105,-0.0149,-0.0129, 0.0144, 0.0026, 0.2042
20-Jan-2019 13:01:29.197, 0.0037,-0.0046,-0.9857,-0.0097,-0.0054, 0.0143,-0.0084,-0.0138,-0.0118, 0.0144, 0.0026, 0.2042
20-Jan-2019 13:01:29.206, 0.0029,-0.0012,-0.9866,-0.0107,-0.0019, 0.0141,-0.0073,-0.0138,-0.0118, 0.0144, 0.0027, 0.2042
20-Jan-2019 13:01:29.217, 0.0019,-0.0007,-0.9860,-0.0115, 0.0015, 0.0133,-0.0094,-0.0138,-0.0129, 0.0144, 0.0027, 0.2042
20-Jan-2019 13:01:29.226, 0.0019,-0.0022,-0.9870,-0.0125, 0.0020, 0.0139,-0.0105,-0.0138,-0.0139, 0.0144, 0.0027, 0.2042
20-Jan-2019 13:01:29.237, 0.0041,-0.0063,-0.9874,-0.0125, 0.0004, 0.0129,-0.0094,-0.0149,-0.0118, 0.0144, 0.0027, 0.2042
20-Jan-2019 13:01:29.246, 0.0036,-0.0073,-0.9867,-0.0103,-0.0037, 0.0125,-0.0094,-0.0138,-0.0118, 0.0144, 0.0027, 0.2042
20-Jan-2019 13:01:29.256, 0.0019,-0.0063,-0.9879,-0.0108,-0.0046, 0.0132,-0.0094,-0.0149,-0.0129, 0.0144, 0.0027, 0.2042
20-Jan-2019 13:01:29.266, 0.0035,-0.0047,-0.9866,-0.0124,-0.0036, 0.0120,-0.0105,-0.0149,-0.0129, 0.0144, 0.0027, 0.2042
20-Jan-2019 13:01:29.276, 0.0011,-0.0022,-0.9852,-0.0108,-0.0020, 0.0132,-0.0094,-0.0159,-0.0129, 0.0144, 0.0027, 0.2042
20-Jan-2019 13:01:29.286, 0.0011,-0.0017,-0.9870,-0.0133, 0.0004, 0.0147,-0.0105,-0.0138,-0.0129, 0.0144, 0.0027, 0.2042
20-Jan-2019 13:01:29.296, 0.0039,-0.0033,-0.9879,-0.0133, 0.0010, 0.0128,-0.0105,-0.0149,-0.0129, 0.0144, 0.0027, 0.2042
20-Jan-2019 13:01:29.306, 0.0039,-0.0051,-0.9888,-0.0104,-0.0007, 0.0120,-0.0084,-0.0149,-0.0118, 0.0143, 0.0027, 0.2042
20-Jan-2019 13:01:29.316, 0.0036,-0.0061,-0.9883,-0.0105,-0.0025, 0.0111,-0.0094,-0.0138,-0.0129, 0.0143, 0.0027, 0.2042
20-Jan-2019 13:01:29.327, 0.0028,-0.0069,-0.9864,-0.0107,-0.0035, 0.0116,-0.0094,-0.0149,-0.0118, 0.0143, 0.0027, 0.2042
20-Jan-2019 13:01:29.336, 0.0019,-0.0057,-0.9861,-0.0115,-0.0043, 0.0135,-0.0084,-0.0149,-0.0118, 0.0143, 0.0027, 0.2042
20-Jan-2019 13:01:29.345, 0.0032,-0.0029,-0.9874,-0.0124,-0.0030, 0.0138,-0.0094,-0.0149,-0.0139, 0.0143, 0.0027, 0.2042
20-Jan-2019 13:01:29.356, 0.0040,-0.0035,-0.9875,-0.0111,-0.0003, 0.0125,-0.0094,-0.0149,-0.0107, 0.0143, 0.0027, 0.2042
20-Jan-2019 13:01:29.365, 0.0045,-0.0040,-0.9875,-0.0103,-0.0008, 0.0123,-0.0084,-0.0128,-0.0118, 0.0143, 0.0027, 0.2042
20-Jan-2019 13:01:29.375, 0.0037,-0.0039,-0.9869,-0.0098,-0.0013, 0.0124,-0.0094,-0.0159,-0.0129, 0.0143, 0.0027, 0.2042
20-Jan-2019 13:01:29.385, 0.0019,-0.0047,-0.9868,-0.0105,-0.0012, 0.0130,-0.0094,-0.0138,-0.0118, 0.0143, 0.0027, 0.2042
20-Jan-2019 13:01:29.395, 0.0032,-0.0045,-0.9873,-0.0124,-0.0020, 0.0131,-0.0083,-0.0149,-0.0129, 0.0142, 0.0027, 0.2042
20-Jan-2019 13:01:29.405, 0.0038,-0.0046,-0.9872,-0.0110,-0.0018, 0.0126,-0.0105,-0.0138,-0.0118, 0.0142, 0.0027, 0.2042
20-Jan-2019 13:01:29.415, 0.0021,-0.0049,-0.9873,-0.0104,-0.0019, 0.0127,-0.0105,-0.0138,-0.0118, 0.0142, 0.0027, 0.2042
20-Jan-2019 13:01:29.425, 0.0019,-0.0041,-0.9880,-0.0121,-0.0022, 0.0126,-0.0084,-0.0149,-0.0118, 0.0142, 0.0027, 0.2042
20-Jan-2019 13:01:29.435, 0.0024,-0.0041,-0.9860,-0.0123,-0.0014, 0.0119,-0.0094,-0.0159,-0.0129, 0.0142, 0.0027, 0.2042
20-Jan-2019 13:01:29.445, 0.0033,-0.0030,-0.9872,-0.0118,-0.0014, 0.0139,-0.0084,-0.0149,-0.0118, 0.0142, 0.0027, 0.2042
20-Jan-2019 13:01:29.455, 0.0039,-0.0037,-0.9868,-0.0109,-0.0003, 0.0127,-0.0094,-0.0149,-0.0129, 0.0142, 0.0027, 0.2042
20-Jan-2019 13:01:29.465, 0.0035,-0.0050,-0.9869,-0.0103,-0.0010, 0.0131,-0.0083,-0.0159,-0.0118, 0.0142, 0.0027, 0.2042
20-Jan-2019 13:01:29.475, 0.0033,-0.0057,-0.9882,-0.0107,-0.0023, 0.0130,-0.0094,-0.0117,-0.0107, 0.0142, 0.0027, 0.2042
20-Jan-2019 13:01:29.485, 0.0032,-0.0053,-0.9878,-0.0109,-0.0030, 0.0117,-0.0094,-0.0117,-0.0129, 0.0142, 0.0027, 0.2042
20-Jan-2019 13:01:29.495, 0.0022,-0.0041,-0.9862,-0.0110,-0.0026, 0.0121,-0.0084,-0.0138,-0.0129, 0.0142, 0.0027, 0.2042
20-Jan-2019 13:01:29.504, 0.0028,-0.0043,-0.9867,-0.0120,-0.0014, 0.0137,-0.0084,-0.0138,-0.0118, 0.0142, 0.0027, 0.2042
20-Jan-2019 13:01:29.515, 0.0036,-0.0053,-0.9874,-0.0113,-0.0015, 0.0132,-0.0094,-0.0149,-0.0118, 0.0142, 0.0027, 0.2042
20-Jan-2019 13:01:29.524, 0.0026,-0.0036,-0.9867,-0.0106,-0.0025, 0.0125,-0.0094,-0.0128,-0.0129, 0.0142, 0.0027, 0.2042
20-Jan-2019 13:01:29.535, 0.0032,-0.0054,-0.9868,-0.0116,-0.0009, 0.0132,-0.0105,-0.0149,-0.0107, 0.0142, 0.0027, 0.2042
20-Jan-2019 13:01:29.544, 0.0045,-0.0044,-0.9871,-0.0110,-0.0027, 0.0131,-0.0094,-0.0149,-0.0129, 0.0141, 0.0027, 0.2042
20-Jan-2019 13:01:29.554, 0.0032,-0.0038,-0.9866,-0.0097,-0.0016, 0.0128,-0.0084,-0.0138,-0.0107, 0.0141, 0.0027, 0.2042
20-Jan-2019 13:01:29.564, 0.0028,-0.0041,-0.9869,-0.0109,-0.0010, 0.0133,-0.0084,-0.0149,-0.0118, 0.0141, 0.0027, 0.2042
20-Jan-2019 13:01:29.574, 0.0035,-0.0036,-0.9852,-0.0113,-0.0014, 0.0130,-0.0094,-0.0138,-0.0107, 0.0141, 0.0027, 0.2042
20-Jan-2019 13:01:29.584, 0.0026,-0.0030,-0.9870,-0.0106,-0.0008, 0.0147,-0.0094,-0.0128,-0.0118, 0.0141, 0.0027, 0.2042
20-Jan-2019 13:01:29.594, 0.0025,-0.0038,-0.9870,-0.0115,-0.0003, 0.0129,-0.0083,-0.0149,-0.0129, 0.0141, 0.0027, 0.2042
20-Jan-2019 13:01:29.604, 0.0022,-0.0053,-0.9862,-0.0116,-0.0010, 0.0129,-0.0094,-0.0138,-0.0118, 0.0141, 0.0027, 0.2042
20-Jan-2019 13:01:29.614, 0.0030,-0.0059,-0.9862,-0.0119,-0.0026, 0.0137,-0.0094,-0.0138,-0.0118, 0.0141, 0.0027, 0.2042
20-Jan-2019 13:01:29.625, 0.0046,-0.0046,-0.9881,-0.0111,-0.0032, 0.0137,-0.0094,-0.0149,-0.0118, 0.0141, 0.0027, 0.2042
20-Jan-2019 13:01:29.634, 0.0029,-0.0020,-0.9867,-0.0094,-0.0018, 0.0118,-0.0105,-0.0160,-0.0118, 0.0141, 0.0027, 0.2042
20-Jan-2019 13:01:29.644, 0.0015,-0.0033,-0.9867,-0.0112, 0.0008, 0.0132,-0.0084,-0.0138,-0.0107, 0.0141, 0.0028, 0.2042
20-Jan-2019 13:01:29.653, 0.0030,-0.0046,-0.9881,-0.0126,-0.0005, 0.0132,-0.0084,-0.0138,-0.0129, 0.0141, 0.0028, 0.2042
20-Jan-2019 13:01:29.664, 0.0026,-0.0058,-0.9865,-0.0110,-0.0018, 0.0118,-0.0094,-0.0128,-0.0118, 0.0141, 0.0028, 0.2042
20-Jan-2019 13:01:29.673, 0.0023,-0.0062,-0.9863,-0.0114,-0.0030, 0.0134,-0.0105,-0.0138,-0.0118, 0.0140, 0.0028, 0.2042
20-Jan-2019 13:01:29.684, 0.0035,-0.0055,-0.9872,-0.0117,-0.0035, 0.0136,-0.0084,-0.0127,-0.0128, 0.0140, 0.0028, 0.2041
20-Jan-2019 13:01:29.693, 0.0033,-0.0040,-0.9876,-0.0105,-0.0027, 0.0127,-0.0073,-0.0138,-0.0107, 0.0140, 0.0028, 0.2041
20-Jan-2019 13:01:29.704, 0.0031,-0.0042,-0.9861,-0.0107,-0.0012, 0.0123,-0.0094,-0.0138,-0.0118, 0.0140, 0.0028, 0.2041
20-Jan-2019 13:01:29.713, 0.0031,-0.0043,-0.9868,-0.0109,-0.0014, 0.0138,-0.0084,-0.0127,-0.0128, 0.0140, 0.0028, 0.2041
20-Jan-2019 13:01:29.723, 0.0035,-0.0045,-0.9863,-0.0109,-0.0015, 0.0131,-0.0094,-0.0149,-0.0139, 0.0140, 0.0028, 0.2041
20-Jan-2019 13:01:29.733, 0.0037,-0.0042,-0.9869,-0.0105,-0.0017, 0.0136,-0.0105,-0.0138,-0.0129, 0.0140, 0.0028, 0.2041
20-Jan-2019 13:01:29.743, 0.0033,-0.0061,-0.9863,-0.0103,-0.0014, 0.0130,-0.0094,-0.0149,-0.0118, 0.0140, 0.0028, 0.2041
20-Jan-2019 13:01:29.753, 0.0016,-0.0056,-0.9877,-0.0107,-0.0034, 0.0136,-0.0105,-0.0160,-0.0118, 0.0140, 0.0028, 0.2041
20-Jan-2019 13:01:29.763, 0.0030,-0.0053,-0.9859,-0.0123,-0.0028, 0.0122,-0.0094,-0.0149,-0.0107, 0.0140, 0.0028, 0.2041
20-Jan-2019 13:01:29.773, 0.0035,-0.0037,-0.9860,-0.0109,-0.0026, 0.0140,-0.0105,-0.0149,-0.0107, 0.0140, 0.0028, 0.2041
20-Jan-2019 13:01:29.783, 0.0027,-0.0024,-0.9865,-0.0104,-0.0009, 0.0139,-0.0094,-0.0138,-0.0107, 0.0140, 0.0028, 0.2041
20-Jan-2019 13:01:29.793, 0.0025,-0.0031,-0.9871,-0.0113, 0.0004, 0.0134,-0.0094,-0.0149,-0.0139, 0.0140, 0.0028, 0.2041
20-Jan-2019 13:01:29.802, 0.0042,-0.0051,-0.9869,-0.0115,-0.0003, 0.0128,-0.0084,-0.0128,-0.0118, 0.0140, 0.0028, 0.2041
20-Jan-2019 13:01:29.813, 0.0026,-0.0061,-0.9866,-0.0098,-0.0024, 0.0130,-0.0094,-0.0138,-0.0118, 0.0140, 0.0028, 0.2041
20-Jan-2019 13:01:29.822, 0.0027,-0.0057,-0.9874,-0.0114,-0.0033, 0.0133,-0.0094,-0.0149,-0.0150, 0.0140, 0.0028, 0.2041
20-Jan-2019 13:01:29.833, 0.0024,-0.0048,-0.9864,-0.0113,-0.0029, 0.0125,-0.0094,-0.0149,-0.0129, 0.0140, 0.0028, 0.2041
20-Jan-2019 13:01:29.842, 0.0029,-0.0040,-0.9861,-0.0116,-0.0020, 0.0135,-0.0115,-0.0138,-0.0129, 0.0139, 0.0028, 0.2041
20-Jan-2019 13:01:29.852, 0.0040,-0.0039,-0.9859,-0.0110,-0.0013, 0.0138,-0.0094,-0.0138,-0.0118, 0.0139, 0.0028, 0.2041
20-Jan-2019 13:01:29.862, 0.0035,-0.0034,-0.9868,-0.0099,-0.0011, 0.0140,-0.0084,-0.0128,-0.0118, 0.0139, 0.0028, 0.2041
20-Jan-2019 13:01:29.872, 0.0028,-0.0036,-0.9868,-0.0105,-0.0006, 0.0131,-0.0094,-0.0128,-0.0118, 0.0139, 0.0028, 0.2041
20-Jan-2019 13:01:29.883, 0.0024,-0.0049,-0.9871,-0.0111,-0.0008, 0.0131,-0.0094,-0.0149,-0.0097, 0.0139, 0.0028, 0.2041
20-Jan-2019 13:01:29.892, 0.0036,-0.0048,-0.9877,-0.0115,-0.0021, 0.0128,-0.0105,-0.0138,-0.0118, 0.0139, 0.0028, 0.2041
20-Jan-2019 13:01:29.902, 0.0027,-0.0044,-0.9870,-0.0103,-0.0020, 0.0122,-0.0084,-0.0149,-0.0118, 0.0139, 0.0028, 0.2041
20-Jan-2019 13:01:29.912, 0.0028,-0.0051,-0.9877,-0.0112,-0.0016, 0.0129,-0.0073,-0.0138,-0.0118, 0.0139, 0.0028, 0.2041
20-Jan-2019 13:01:29.922, 0.0030,-0.0037,-0.9865,-0.0111,-0.0023, 0.0122,-0.0105,-0.0128,-0.0118, 0.0139, 0.0028, 0.2041
20-Jan-2019 13:01:29.932, 0.0027,-0.0027,-0.9870,-0.0109,-0.0009, 0.0134,-0.0083,-0.0149,-0.0129, 0.0139, 0.0028, 0.2041
20-Jan-2019 13:01:29.942, 0.0026,-0.0031,-0.9872,-0.0111, 0.0001, 0.0129,-0.0084,-0.0138,-0.0118, 0.0139, 0.0028, 0.2041
20-Jan-2019 13:01:29.951, 0.0023,-0.0041,-0.9872,-0.0113,-0.0003, 0.0127,-0.0094,-0.0138,-0.0139, 0.0139, 0.0028, 0.2041
20-Jan-2019 13:01:29.961, 0.0034,-0.0053,-0.9884,-0.0116,-0.0013, 0.0127,-0.0084,-0.0138,-0.0129, 0.0139, 0.0028, 0.2041
20-Jan-2019 13:01:29.971, 0.0031,-0.0057,-0.9868,-0.0104,-0.0025, 0.0115,-0.0084,-0.0128,-0.0118, 0.0139, 0.0028, 0.2041
20-Jan-2019 13:01:29.982, 0.0032,-0.0058,-0.9874,-0.0108,-0.0028, 0.0131,-0.0084,-0.0149,-0.0086, 0.0139, 0.0028, 0.2041
20-Jan-2019 13:01:29.991, 0.0042,-0.0037,-0.9868,-0.0106,-0.0030, 0.0125,-0.0094,-0.0149,-0.0118, 0.0139, 0.0028, 0.2041
20-Jan-2019 13:01:30.001, 0.0042,-0.0044,-0.9867,-0.0097,-0.0009, 0.0131,-0.0094,-0.0138,-0.0107, 0.0139, 0.0028, 0.2041
20-Jan-2019 13:01:30.011, 0.0034,-0.0037,-0.9875,-0.0097,-0.0016, 0.0132,-0.0084,-0.0128,-0.0118, 0.0138, 0.0028, 0.2041
20-Jan-2019 13:01:30.021, 0.0022,-0.0039,-0.9871,-0.0104,-0.0008, 0.0124,-0.0094,-0.0149,-0.0107, 0.0138, 0.0028, 0.2042
20-Jan-2019 13:01:30.031, 0.0020,-0.0046,-0.9866,-0.0117,-0.0011, 0.0128,-0.0094,-0.0149,-0.0118, 0.0138, 0.0028, 0.2042
20-Jan-2019 13:01:30.041, 0.0036,-0.0050,-0.9859,-0.0118,-0.0018, 0.0133,-0.0084,-0.0149,-0.0107, 0.0138, 0.0028, 0.2042
20-Jan-2019 13:01:30.051, 0.0049,-0.0054,-0.9874,-0.0102,-0.0022, 0.0140,-0.0094,-0.0160,-0.0107, 0.0138, 0.0028, 0.2042
20-Jan-2019 13:01:30.060, 0.0038,-0.0052,-0.9863,-0.0089,-0.0025, 0.0126,-0.0083,-0.0170,-0.0129, 0.0138, 0.0029, 0.2042
20-Jan-2019 13:01:30.071, 0.0029,-0.0033,-0.9861,-0.0100,-0.0024, 0.0136,-0.0094,-0.0138,-0.0118, 0.0138, 0.0029, 0.2042
20-Jan-2019 13:01:30.080, 0.0025,-0.0038,-0.9869,-0.0109,-0.0004, 0.0138,-0.0105,-0.0149,-0.0118, 0.0138, 0.0028, 0.2042
20-Jan-2019 13:01:30.091, 0.0021,-0.0038,-0.9875,-0.0113,-0.0009, 0.0130,-0.0094,-0.0138,-0.0118, 0.0138, 0.0028, 0.2042
20-Jan-2019 13:01:30.101, 0.0033,-0.0053,-0.9870,-0.0117,-0.0009, 0.0124,-0.0094,-0.0138,-0.0129, 0.0138, 0.0028, 0.2042
20-Jan-2019 13:01:30.110, 0.0028,-0.0045,-0.9863,-0.0105,-0.0024, 0.0129,-0.0083,-0.0160,-0.0107, 0.0138, 0.0029, 0.2042
20-Jan-2019 13:01:30.121, 0.0026,-0.0044,-0.9871,-0.0109,-0.0016, 0.0136,-0.0083,-0.0149,-0.0129, 0.0138, 0.0029, 0.2042
20-Jan-2019 13:01:30.130, 0.0038,-0.0045,-0.9865,-0.0112,-0.0016, 0.0128,-0.0094,-0.0138,-0.0118, 0.0138, 0.0029, 0.2042
20-Jan-2019 13:01:30.140, 0.0030,-0.0041,-0.9863,-0.0099,-0.0017, 0.0134,-0.0105,-0.0138,-0.0118, 0.0138, 0.0029, 0.2042
20-Jan-2019 13:01:30.150, 0.0031,-0.0038,-0.9861,-0.0108,-0.0012, 0.0136,-0.0084,-0.0138,-0.0118, 0.0138, 0.0029, 0.2042
20-Jan-2019 13:01:30.160, 0.0033,-0.0029,-0.9874,-0.0106,-0.0010, 0.0138,-0.0116,-0.0128,-0.0118, 0.0138, 0.0028, 0.2042
20-Jan-2019 13:01:30.170, 0.0036,-0.0053,-0.9878,-0.0105,-0.0000, 0.0125,-0.0105,-0.0149,-0.0107, 0.0137, 0.0028, 0.2042
20-Jan-2019 13:01:30.180, 0.0031,-0.0045,-0.9866,-0.0101,-0.0025, 0.0121,-0.0094,-0.0128,-0.0118, 0.0137, 0.0028, 0.2042
20-Jan-2019 13:01:30.190, 0.0024,-0.0029,-0.9871,-0.0107,-0.0017, 0.0133,-0.0105,-0.0138,-0.0118, 0.0137, 0.0028, 0.2042
20-Jan-2019 13:01:30.200, 0.0027,-0.0042,-0.9865,-0.0114,-0.0000, 0.0128,-0.0105,-0.0149,-0.0118, 0.0137, 0.0028, 0.2042
20-Jan-2019 13:01:30.209, 0.0040,-0.0048,-0.9868,-0.0110,-0.0013, 0.0134,-0.0094,-0.0149,-0.0118, 0.0137, 0.0028, 0.2042
20-Jan-2019 13:01:30.220, 0.0034,-0.0040,-0.9864,-0.0097,-0.0020, 0.0131,-0.0105,-0.0138,-0.0118, 0.0137, 0.0028, 0.2042
20-Jan-2019 13:01:30.229, 0.0025,-0.0047,-0.9873,-0.0103,-0.0012, 0.0135,-0.0094,-0.0160,-0.0107, 0.0137, 0.0028, 0.2042
20-Jan-2019 13:01:30.240, 0.0034,-0.0056,-0.9872,-0.0112,-0.0019, 0.0126,-0.0094,-0.0159,-0.0129, 0.0137, 0.0028, 0.2042
20-Jan-2019 13:01:30.250, 0.0034,-0.0047,-0.9873,-0.0103,-0.0028, 0.0127,-0.0105,-0.0149,-0.0129, 0.0137, 0.0028, 0.2042
20-Jan-2019 13:01:30.259, 0.0031,-0.0044,-0.9867,-0.0103,-0.0019, 0.0126,-0.0094,-0.0149,-0.0129, 0.0137, 0.0028, 0.2042
20-Jan-2019 13:01:30.270, 0.0038,-0.0047,-0.9872,-0.0106,-0.0016, 0.0132,-0.0094,-0.0160,-0.0118, 0.0137, 0.0028, 0.2042
20-Jan-2019 13:01:30.279, 0.0029,-0.0038,-0.9876,-0.0099,-0.0019, 0.0127,-0.0084,-0.0149,-0.0118, 0.0137, 0.0028, 0.2042
20-Jan-2019 13:01:30.291, 0.0024,-0.0044,-0.9871,-0.0107,-0.0010, 0.0123,-0.0084,-0.0138,-0.0118, 0.0136, 0.0028, 0.2042
20-Jan-2019 13:01:30.301, 0.0030,-0.0043,-0.9869,-0.0113,-0.0016, 0.0128,-0.0073,-0.0159,-0.0118, 0.0136, 0.0028, 0.2042
20-Jan-2019 13:01:30.309, 0.0032,-0.0044,-0.9866,-0.0106,-0.0014, 0.0130,-0.0084,-0.0138,-0.0118, 0.0136, 0.0028, 0.2042
20-Jan-2019 13:01:30.319, 0.0039,-0.0045,-0.9882,-0.0104,-0.0016, 0.0133,-0.0073,-0.0138,-0.0128, 0.0137, 0.0029, 0.2042
20-Jan-2019 13:01:30.329, 0.0033,-0.0049,-0.9874,-0.0097,-0.0016, 0.0117,-0.0094,-0.0149,-0.0118, 0.0136, 0.0029, 0.2042
20-Jan-2019 13:01:30.339, 0.0024,-0.0052,-0.9869,-0.0103,-0.0020, 0.0126,-0.0094,-0.0128,-0.0118, 0.0137, 0.0029, 0.2042
20-Jan-2019 13:01:30.348, 0.0031,-0.0052,-0.9870,-0.0112,-0.0024, 0.0130,-0.0105,-0.0149,-0.0118, 0.0136, 0.0029, 0.2042
20-Jan-2019 13:01:30.359, 0.0035,-0.0038,-0.9874,-0.0105,-0.0024, 0.0129,-0.0105,-0.0149,-0.0118, 0.0136, 0.0029, 0.2042
20-Jan-2019 13:01:30.368, 0.0031,-0.0034,-0.9871,-0.0101,-0.0009, 0.0125,-0.0094,-0.0138,-0.0129, 0.0136, 0.0029, 0.2042
20-Jan-2019 13:01:30.379, 0.0027,-0.0047,-0.9861,-0.0105,-0.0006, 0.0128,-0.0105,-0.0149,-0.0107, 0.0136, 0.0029, 0.2042
20-Jan-2019 13:01:30.388, 0.0024,-0.0052,-0.9868,-0.0109,-0.0019, 0.0138,-0.0094,-0.0149,-0.0129, 0.0136, 0.0028, 0.2042
20-Jan-2019 13:01:30.399, 0.0032,-0.0051,-0.9879,-0.0112,-0.0024, 0.0131,-0.0094,-0.0160,-0.0118, 0.0136, 0.0028, 0.2042
20-Jan-2019 13:01:30.408, 0.0032,-0.0049,-0.9875,-0.0104,-0.0023, 0.0120,-0.0094,-0.0128,-0.0107, 0.0136, 0.0028, 0.2042
20-Jan-2019 13:01:30.419, 0.0032,-0.0042,-0.9868,-0.0104,-0.0021, 0.0124,-0.0084,-0.0138,-0.0129, 0.0136, 0.0028, 0.2042
20-Jan-2019 13:01:30.428, 0.0038,-0.0040,-0.9873,-0.0103,-0.0014, 0.0131,-0.0105,-0.0138,-0.0118, 0.0136, 0.0028, 0.2042
20-Jan-2019 13:01:30.438, 0.0038,-0.0041,-0.9872,-0.0097,-0.0011, 0.0126,-0.0094,-0.0149,-0.0118, 0.0136, 0.0028, 0.2042
20-Jan-2019 13:01:30.448, 0.0028,-0.0037,-0.9863,-0.0097,-0.0013, 0.0127,-0.0094,-0.0149,-0.0107, 0.0136, 0.0028, 0.2042
20-Jan-2019 13:01:30.458, 0.0032,-0.0042,-0.9872,-0.0107,-0.0009, 0.0136,-0.0105,-0.0149,-0.0129, 0.0135, 0.0028, 0.2042
20-Jan-2019 13:01:30.468, 0.0045,-0.0052,-0.9878,-0.0103,-0.0013, 0.0127,-0.0084,-0.0149,-0.0118, 0.0135, 0.0028, 0.2042
20-Jan-2019 13:01:30.478, 0.0031,-0.0050,-0.9874,-0.0090,-0.0024, 0.0121,-0.0094,-0.0138,-0.0107, 0.0135, 0.0029, 0.2042
20-Jan-2019 13:01:30.488, 0.0026,-0.0039,-0.9865,-0.0105,-0.0022, 0.0125,-0.0084,-0.0138,-0.0118, 0.0135, 0.0029, 0.2042
20-Jan-2019 13:01:30.498, 0.0024,-0.0043,-0.9866,-0.0109,-0.0011, 0.0135,-0.0084,-0.0138,-0.0129, 0.0135, 0.0029, 0.2042
20-Jan-2019 13:01:30.508, 0.0021,-0.0034,-0.9872,-0.0111,-0.0014, 0.0133,-0.0094,-0.0149,-0.0139, 0.0135, 0.0029, 0.2042
20-Jan-2019 13:01:30.518, 0.0020,-0.0038,-0.9863,-0.0114,-0.0006, 0.0127,-0.0094,-0.0149,-0.0118, 0.0135, 0.0029, 0.2042
20-Jan-2019 13:01:30.528, 0.0028,-0.0050,-0.9875,-0.0115,-0.0010, 0.0136,-0.0094,-0.0149,-0.0118, 0.0135, 0.0029, 0.2042
20-Jan-2019 13:01:30.537, 0.0036,-0.0049,-0.9873,-0.0106,-0.0021, 0.0124,-0.0083,-0.0159,-0.0118, 0.0135, 0.0029, 0.2042
20-Jan-2019 13:01:30.547, 0.0029,-0.0049,-0.9875,-0.0099,-0.0020, 0.0126,-0.0083,-0.0160,-0.0107, 0.0134, 0.0029, 0.2042
20-Jan-2019 13:01:30.557, 0.0020,-0.0046,-0.9867,-0.0105,-0.0021, 0.0124,-0.0094,-0.0149,-0.0107, 0.0134, 0.0029, 0.2042
20-Jan-2019 13:01:30.567, 0.0025,-0.0047,-0.9871,-0.0114,-0.0017, 0.0132,-0.0084,-0.0127,-0.0139, 0.0134, 0.0029, 0.2042
20-Jan-2019 13:01:30.578, 0.0034,-0.0038,-0.9868,-0.0109,-0.0018, 0.0128,-0.0094,-0.0138,-0.0129, 0.0134, 0.0029, 0.2042
20-Jan-2019 13:01:30.587, 0.0035,-0.0048,-0.9869,-0.0101,-0.0010, 0.0131,-0.0094,-0.0149,-0.0129, 0.0134, 0.0029, 0.2042
20-Jan-2019 13:01:30.597, 0.0033,-0.0051,-0.9866,-0.0099,-0.0019, 0.0130,-0.0126,-0.0160,-0.0107, 0.0134, 0.0029, 0.2042
20-Jan-2019 13:01:30.607, 0.0042,-0.0050,-0.9869,-0.0101,-0.0022, 0.0133,-0.0084,-0.0138,-0.0107, 0.0134, 0.0029, 0.2042
20-Jan-2019 13:01:30.617, 0.0033,-0.0046,-0.9875,-0.0092,-0.0021, 0.0130,-0.0083,-0.0159,-0.0129, 0.0134, 0.0029, 0.2042
20-Jan-2019 13:01:30.627, 0.0027,-0.0046,-0.9873,-0.0101,-0.0017, 0.0124,-0.0105,-0.0128,-0.0118, 0.0134, 0.0029, 0.2042
20-Jan-2019 13:01:30.637, 0.0035,-0.0040,-0.9875,-0.0107,-0.0017, 0.0126,-0.0094,-0.0138,-0.0129, 0.0134, 0.0029, 0.2042
20-Jan-2019 13:01:30.647, 0.0026,-0.0027,-0.9860,-0.0098,-0.0011, 0.0124,-0.0094,-0.0160,-0.0118, 0.0134, 0.0029, 0.2042
20-Jan-2019 13:01:30.656, 0.0024,-0.0040,-0.9870,-0.0107, 0.0002, 0.0139,-0.0094,-0.0149,-0.0107, 0.0133, 0.0029, 0.2042
20-Jan-2019 13:01:30.666, 0.0036,-0.0056,-0.9877,-0.0110,-0.0011, 0.0129,-0.0094,-0.0149,-0.0118, 0.0133, 0.0029, 0.2042
20-Jan-2019 13:01:30.677, 0.0044,-0.0059,-0.9876,-0.0098,-0.0027, 0.0122,-0.0094,-0.0128,-0.0129, 0.0133, 0.0029, 0.2042
20-Jan-2019 13:01:30.686, 0.0037,-0.0051,-0.9881,-0.0090,-0.0030, 0.0123,-0.0084,-0.0138,-0.0118, 0.0134, 0.0029, 0.2042
20-Jan-2019 13:01:30.696, 0.0029,-0.0046,-0.9882,-0.0096,-0.0022, 0.0118,-0.0084,-0.0138,-0.0097, 0.0133, 0.0029, 0.2042
20-Jan-2019 13:01:30.706, 0.0021,-0.0040,-0.9868,-0.0104,-0.0016, 0.0117,-0.0094,-0.0149,-0.0139, 0.0133, 0.0029, 0.2042
20-Jan-2019 13:01:30.716, 0.0022,-0.0039,-0.9869,-0.0112,-0.0011, 0.0131,-0.0105,-0.0128,-0.0118, 0.0133, 0.0029, 0.2042
20-Jan-2019 13:01:30.726, 0.0027,-0.0040,-0.9872,-0.0111,-0.0010, 0.0130,-0.0105,-0.0128,-0.0129, 0.0133, 0.0029, 0.2042
20-Jan-2019 13:01:30.737, 0.0036,-0.0042,-0.9873,-0.0107,-0.0011, 0.0127,-0.0084,-0.0138,-0.0129, 0.0133, 0.0029, 0.2042
20-Jan-2019 13:01:30.746, 0.0032,-0.0042,-0.9878,-0.0097,-0.0013, 0.0126,-0.0094,-0.0149,-0.0118, 0.0133, 0.0029, 0.2042
20-Jan-2019 13:01:30.756, 0.0029,-0.0038,-0.9878,-0.0101,-0.0013, 0.0121,-0.0084,-0.0138,-0.0129, 0.0133, 0.0029, 0.2042
20-Jan-2019 13:01:30.766, 0.0028,-0.0045,-0.9871,-0.0104,-0.0008, 0.0121,-0.0073,-0.0149,-0.0128, 0.0133, 0.0029, 0.2042
20-Jan-2019 13:01:30.776, 0.0030,-0.0041,-0.9867,-0.0105,-0.0016, 0.0128,-0.0105,-0.0160,-0.0118, 0.0133, 0.0029, 0.2042
20-Jan-2019 13:01:30.786, 0.0023,-0.0041,-0.9870,-0.0103,-0.0012, 0.0132,-0.0105,-0.0128,-0.0118, 0.0133, 0.0029, 0.2042
20-Jan-2019 13:01:30.796, 0.0014,-0.0039,-0.9877,-0.0110,-0.0012, 0.0129,-0.0094,-0.0138,-0.0118, 0.0133, 0.0029, 0.2042
20-Jan-2019 13:01:30.806, 0.0028,-0.0046,-0.9866,-0.0119,-0.0010, 0.0122,-0.0083,-0.0138,-0.0139, 0.0133, 0.0029, 0.2042
20-Jan-2019 13:01:30.816, 0.0037,-0.0058,-0.9862,-0.0105,-0.0016, 0.0133,-0.0094,-0.0149,-0.0129, 0.0133, 0.0029, 0.2042
20-Jan-2019 13:01:30.825, 0.0029,-0.0051,-0.9877,-0.0096,-0.0029, 0.0137,-0.0094,-0.0138,-0.0118, 0.0133, 0.0029, 0.2042
20-Jan-2019 13:01:30.836, 0.0031,-0.0043,-0.9877,-0.0103,-0.0022, 0.0123,-0.0073,-0.0159,-0.0118, 0.0133, 0.0029, 0.2042
20-Jan-2019 13:01:30.845, 0.0040,-0.0047,-0.9868,-0.0102,-0.0013, 0.0122,-0.0094,-0.0138,-0.0118, 0.0133, 0.0029, 0.2042
20-Jan-2019 13:01:30.855, 0.0039,-0.0036,-0.9867,-0.0093,-0.0018, 0.0131,-0.0084,-0.0138,-0.0118, 0.0133, 0.0030, 0.2042
20-Jan-2019 13:01:30.865, 0.0021,-0.0032,-0.9872,-0.0093,-0.0006, 0.0132,-0.0084,-0.0138,-0.0129, 0.0133, 0.0030, 0.2042
20-Jan-2019 13:01:30.875, 0.0017,-0.0029,-0.9867,-0.0112,-0.0003, 0.0127,-0.0084,-0.0149,-0.0118, 0.0132, 0.0030, 0.2042
20-Jan-2019 13:01:30.885, 0.0033,-0.0044,-0.9864,-0.0116, 0.0001, 0.0132,-0.0094,-0.0138,-0.0129, 0.0132, 0.0030, 0.2042
20-Jan-2019 13:01:30.895, 0.0037,-0.0055,-0.9864,-0.0099,-0.0014, 0.0135,-0.0083,-0.0159,-0.0118, 0.0132, 0.0030, 0.2042
20-Jan-2019 13:01:30.905, 0.0032,-0.0065,-0.9877,-0.0095,-0.0025, 0.0135,-0.0094,-0.0149,-0.0107, 0.0132, 0.0030, 0.2042
20-Jan-2019 13:01:30.915, 0.0031,-0.0054,-0.9875,-0.0100,-0.0035, 0.0122,-0.0105,-0.0128,-0.0139, 0.0132, 0.0030, 0.2042
20-Jan-2019 13:01:30.925, 0.0025,-0.0037,-0.9864,-0.0101,-0.0024, 0.0124,-0.0094,-0.0128,-0.0107, 0.0132, 0.0030, 0.2042
20-Jan-2019 13:01:30.935, 0.0030,-0.0032,-0.9873,-0.0107,-0.0007, 0.0135,-0.0094,-0.0138,-0.0139, 0.0132, 0.0030, 0.2042
20-Jan-2019 13:01:30.945, 0.0038,-0.0034,-0.9870,-0.0102,-0.0002, 0.0126,-0.0105,-0.0128,-0.0107, 0.0132, 0.0030, 0.2042
20-Jan-2019 13:01:30.955, 0.0031,-0.0044,-0.9873,-0.0094,-0.0005, 0.0129,-0.0083,-0.0159,-0.0118, 0.0132, 0.0030, 0.2042
20-Jan-2019 13:01:30.965, 0.0033,-0.0052,-0.9871,-0.0101,-0.0014, 0.0126,-0.0084,-0.0149,-0.0118, 0.0132, 0.0030, 0.2042
20-Jan-2019 13:01:30.975, 0.0029,-0.0053,-0.9875,-0.0099,-0.0022, 0.0128,-0.0094,-0.0128,-0.0118, 0.0132, 0.0030, 0.2042
20-Jan-2019 13:01:30.985, 0.0035,-0.0053,-0.9871,-0.0103,-0.0023, 0.0124,-0.0094,-0.0149,-0.0118, 0.0132, 0.0030, 0.2042
20-Jan-2019 13:01:30.995, 0.0029,-0.0042,-0.9863,-0.0096,-0.0023, 0.0128,-0.0083,-0.0159,-0.0129, 0.0132, 0.0030, 0.2042
20-Jan-2019 13:01:31.005, 0.0029,-0.0021,-0.9873,-0.0102,-0.0012, 0.0136,-0.0094,-0.0149,-0.0129, 0.0132, 0.0030, 0.2042
20-Jan-2019 13:01:31.014, 0.0030,-0.0030,-0.9870,-0.0102, 0.0009, 0.0126,-0.0083,-0.0159,-0.0118, 0.0132, 0.0030, 0.2042
20-Jan-2019 13:01:31.024, 0.0024,-0.0046,-0.9874,-0.0102,-0.0000, 0.0129,-0.0094,-0.0149,-0.0118, 0.0131, 0.0030, 0.2042
20-Jan-2019 13:01:31.034, 0.0024,-0.0061,-0.9883,-0.0107,-0.0017, 0.0126,-0.0105,-0.0149,-0.0118, 0.0131, 0.0030, 0.2042
20-Jan-2019 13:01:31.044, 0.0035,-0.0055,-0.9872,-0.0107,-0.0031, 0.0116,-0.0084,-0.0149,-0.0118, 0.0131, 0.0030, 0.2042
20-Jan-2019 13:01:31.054, 0.0039,-0.0047,-0.9879,-0.0096,-0.0025, 0.0127,-0.0105,-0.0149,-0.0118, 0.0131, 0.0030, 0.2042
20-Jan-2019 13:01:31.064, 0.0022,-0.0034,-0.9874,-0.0093,-0.0017, 0.0120,-0.0094,-0.0138,-0.0118, 0.0131, 0.0030, 0.2042
20-Jan-2019 13:01:31.074, 0.0036,-0.0032,-0.9874,-0.0109,-0.0005, 0.0125,-0.0094,-0.0138,-0.0118, 0.0131, 0.0030, 0.2042
20-Jan-2019 13:01:31.084, 0.0027,-0.0030,-0.9864,-0.0095,-0.0002, 0.0125,-0.0094,-0.0128,-0.0118, 0.0131, 0.0030, 0.2042
20-Jan-2019 13:01:31.093, 0.0025,-0.0036,-0.9874,-0.0104,-0.0001, 0.0135,-0.0105,-0.0128,-0.0129, 0.0131, 0.0030, 0.2042
20-Jan-2019 13:01:31.104, 0.0044,-0.0058,-0.9866,-0.0107,-0.0007, 0.0125,-0.0084,-0.0138,-0.0118, 0.0131, 0.0030, 0.2042
20-Jan-2019 13:01:31.114, 0.0030,-0.0059,-0.9871,-0.0087,-0.0028, 0.0133,-0.0094,-0.0149,-0.0107, 0.0131, 0.0030, 0.2042
20-Jan-2019 13:01:31.124, 0.0028,-0.0049,-0.9876,-0.0101,-0.0029, 0.0128,-0.0094,-0.0149,-0.0129, 0.0131, 0.0030, 0.2042
20-Jan-2019 13:01:31.133, 0.0034,-0.0038,-0.9870,-0.0102,-0.0019, 0.0123,-0.0094,-0.0149,-0.0118, 0.0131, 0.0030, 0.2042
20-Jan-2019 13:01:31.143, 0.0041,-0.0033,-0.9875,-0.0096,-0.0008, 0.0129,-0.0094,-0.0149,-0.0118, 0.0131, 0.0030, 0.2042
20-Jan-2019 13:01:31.153, 0.0029,-0.0032,-0.9864,-0.0089,-0.0003, 0.0124,-0.0094,-0.0128,-0.0107, 0.0131, 0.0030, 0.2042
20-Jan-2019 13:01:31.163, 0.0022,-0.0033,-0.9868,-0.0101,-0.0002, 0.0135,-0.0105,-0.0138,-0.0118, 0.0130, 0.0030, 0.2042
20-Jan-2019 13:01:31.173, 0.0034,-0.0056,-0.9885,-0.0108,-0.0003, 0.0131,-0.0084,-0.0149,-0.0118, 0.0130, 0.0030, 0.2042
20-Jan-2019 13:01:31.183, 0.0030,-0.0058,-0.9870,-0.0096,-0.0026, 0.0114,-0.0094,-0.0138,-0.0129, 0.0130, 0.0030, 0.2042
20-Jan-2019 13:01:31.193, 0.0024,-0.0060,-0.9862,-0.0101,-0.0028, 0.0129,-0.0094,-0.0138,-0.0118, 0.0130, 0.0030, 0.2042
20-Jan-2019 13:01:31.203, 0.0025,-0.0048,-0.9886,-0.0106,-0.0030, 0.0137,-0.0094,-0.0149,-0.0118, 0.0130, 0.0030, 0.2042
20-Jan-2019 13:01:31.213, 0.0033,-0.0037,-0.9864,-0.0105,-0.0018, 0.0113,-0.0094,-0.0149,-0.0129, 0.0130, 0.0030, 0.2042
20-Jan-2019 13:01:31.223, 0.0029,-0.0022,-0.9856,-0.0097,-0.0007, 0.0135,-0.0094,-0.0160,-0.0107, 0.0130, 0.0030, 0.2042
20-Jan-2019 13:01:31.233, 0.0032,-0.0029,-0.9878,-0.0101, 0.0008, 0.0143,-0.0083,-0.0149,-0.0129, 0.0130, 0.0030, 0.2042
20-Jan-2019 13:01:31.243, 0.0032,-0.0043,-0.9865,-0.0098, 0.0001, 0.0121,-0.0094,-0.0149,-0.0129, 0.0130, 0.0030, 0.2042
20-Jan-2019 13:01:31.253, 0.0029,-0.0063,-0.9872,-0.0097,-0.0014, 0.0134,-0.0083,-0.0159,-0.0118, 0.0130, 0.0030, 0.2042
20-Jan-2019 13:01:31.262, 0.0038,-0.0055,-0.9858,-0.0101,-0.0033, 0.0127,-0.0084,-0.0149,-0.0107, 0.0129, 0.0030, 0.2042
20-Jan-2019 13:01:31.273, 0.0036,-0.0057,-0.9875,-0.0091,-0.0025, 0.0141,-0.0084,-0.0138,-0.0118, 0.0130, 0.0030, 0.2042
20-Jan-2019 13:01:31.282, 0.0033,-0.0039,-0.9874,-0.0094,-0.0027, 0.0124,-0.0094,-0.0149,-0.0129, 0.0129, 0.0030, 0.2042
20-Jan-2019 13:01:31.293, 0.0024,-0.0019,-0.9860,-0.0097,-0.0009, 0.0126,-0.0094,-0.0149,-0.0129, 0.0129, 0.0030, 0.2042
20-Jan-2019 13:01:31.302, 0.0026,-0.0029,-0.9872,-0.0105, 0.0011, 0.0139,-0.0084,-0.0138,-0.0118, 0.0129, 0.0030, 0.2042
20-Jan-2019 13:01:31.312, 0.0026,-0.0039,-0.9867,-0.0103, 0.0000, 0.0127,-0.0105,-0.0138,-0.0129, 0.0129, 0.0030, 0.2042
20-Jan-2019 13:01:31.322, 0.0035,-0.0053,-0.9870,-0.0103,-0.0009, 0.0132,-0.0105,-0.0160,-0.0118, 0.0129, 0.0030, 0.2042
20-Jan-2019 13:01:31.332, 0.0031,-0.0059,-0.9873,-0.0094,-0.0023, 0.0129,-0.0084,-0.0149,-0.0107, 0.0129, 0.0030, 0.2042
20-Jan-2019 13:01:31.342, 0.0030,-0.0059,-0.9879,-0.0098,-0.0029, 0.0126,-0.0105,-0.0138,-0.0118, 0.0129, 0.0030, 0.2042
20-Jan-2019 13:01:31.352, 0.0033,-0.0044,-0.9857,-0.0099,-0.0029, 0.0120,-0.0094,-0.0149,-0.0118, 0.0129, 0.0030, 0.2042
20-Jan-2019 13:01:31.362, 0.0033,-0.0026,-0.9872,-0.0096,-0.0014, 0.0142,-0.0094,-0.0149,-0.0118, 0.0129, 0.0030, 0.2042
20-Jan-2019 13:01:31.372, 0.0027,-0.0020,-0.9875,-0.0095, 0.0004, 0.0127,-0.0084,-0.0149,-0.0118, 0.0129, 0.0030, 0.2042
20-Jan-2019 13:01:31.382, 0.0031,-0.0032,-0.9867,-0.0102, 0.0010, 0.0124,-0.0094,-0.0149,-0.0129, 0.0129, 0.0030, 0.2042
20-Jan-2019 13:01:31.392, 0.0034,-0.0063,-0.9867,-0.0097,-0.0002, 0.0132,-0.0105,-0.0160,-0.0107, 0.0129, 0.0030, 0.2042
20-Jan-2019 13:01:31.402, 0.0035,-0.0074,-0.9872,-0.0095,-0.0033, 0.0132,-0.0084,-0.0128,-0.0118, 0.0129, 0.0030, 0.2042
20-Jan-2019 13:01:31.411, 0.0033,-0.0064,-0.9868,-0.0094,-0.0044, 0.0127,-0.0084,-0.0138,-0.0107, 0.0129, 0.0030, 0.2042
20-Jan-2019 13:01:31.422, 0.0028,-0.0052,-0.9867,-0.0095,-0.0034, 0.0131,-0.0094,-0.0149,-0.0118, 0.0128, 0.0030, 0.2042
20-Jan-2019 13:01:31.431, 0.0032,-0.0033,-0.9863,-0.0100,-0.0023, 0.0132,-0.0105,-0.0138,-0.0118, 0.0128, 0.0030, 0.2042
20-Jan-2019 13:01:31.441, 0.0033,-0.0023,-0.9871,-0.0097,-0.0003, 0.0136,-0.0105,-0.0128,-0.0129, 0.0128, 0.0030, 0.2042
20-Jan-2019 13:01:31.452, 0.0034,-0.0023,-0.9870,-0.0096, 0.0007, 0.0128,-0.0105,-0.0128,-0.0107, 0.0128, 0.0030, 0.2042
20-Jan-2019 13:01:31.461, 0.0030,-0.0035,-0.9867,-0.0094, 0.0006, 0.0130,-0.0094,-0.0159,-0.0129, 0.0128, 0.0030, 0.2042
20-Jan-2019 13:01:31.472, 0.0029,-0.0061,-0.9863,-0.0098,-0.0006, 0.0132,-0.0073,-0.0138,-0.0128, 0.0128, 0.0030, 0.2042
20-Jan-2019 13:01:31.481, 0.0034,-0.0068,-0.9875,-0.0099,-0.0031, 0.0136,-0.0084,-0.0138,-0.0118, 0.0128, 0.0030, 0.2042
20-Jan-2019 13:01:31.492, 0.0037,-0.0066,-0.9878,-0.0093,-0.0038, 0.0124,-0.0094,-0.0160,-0.0118, 0.0128, 0.0030, 0.2042
20-Jan-2019 13:01:31.501, 0.0035,-0.0047,-0.9866,-0.0091,-0.0036, 0.0121,-0.0105,-0.0149,-0.0139, 0.0128, 0.0030, 0.2042
20-Jan-2019 13:01:31.511, 0.0030,-0.0021,-0.9863,-0.0093,-0.0017, 0.0133,-0.0084,-0.0128,-0.0118, 0.0128, 0.0030, 0.2042
20-Jan-2019 13:01:31.521, 0.0027,-0.0019,-0.9867,-0.0098, 0.0009, 0.0136,-0.0094,-0.0149,-0.0118, 0.0128, 0.0030, 0.2042
20-Jan-2019 13:01:31.531, 0.0030,-0.0031,-0.9871,-0.0101, 0.0011, 0.0132,-0.0094,-0.0138,-0.0118, 0.0128, 0.0030, 0.2042
20-Jan-2019 13:01:31.541, 0.0030,-0.0050,-0.9871,-0.0097,-0.0002, 0.0128,-0.0094,-0.0138,-0.0118, 0.0128, 0.0030, 0.2042
20-Jan-2019 13:01:31.551, 0.0032,-0.0057,-0.9870,-0.0097,-0.0021, 0.0129,-0.0094,-0.0160,-0.0118, 0.0127, 0.0030, 0.2042
20-Jan-2019 13:01:31.560, 0.0032,-0.0055,-0.9870,-0.0096,-0.0027, 0.0129,-0.0084,-0.0128,-0.0107, 0.0127, 0.0030, 0.2042
20-Jan-2019 13:01:31.571, 0.0022,-0.0049,-0.9867,-0.0095,-0.0026, 0.0129,-0.0094,-0.0149,-0.0118, 0.0127, 0.0030, 0.2042
20-Jan-2019 13:01:31.580, 0.0022,-0.0024,-0.9870,-0.0106,-0.0019, 0.0132,-0.0084,-0.0138,-0.0118, 0.0127, 0.0030, 0.2042
20-Jan-2019 13:01:31.590, 0.0023,-0.0020,-0.9876,-0.0105, 0.0006, 0.0129,-0.0094,-0.0149,-0.0118, 0.0127, 0.0030, 0.2041
20-Jan-2019 13:01:31.600, 0.0034,-0.0027,-0.9870,-0.0104, 0.0010, 0.0123,-0.0084,-0.0138,-0.0118, 0.0127, 0.0030, 0.2041
20-Jan-2019 13:01:31.610, 0.0040,-0.0034,-0.9862,-0.0093, 0.0003, 0.0130,-0.0084,-0.0138,-0.0118, 0.0127, 0.0030, 0.2041
20-Jan-2019 13:01:31.621, 0.0031,-0.0058,-0.9875,-0.0096,-0.0028, 0.0125,-0.0084,-0.0149,-0.0118, 0.0127, 0.0030, 0.2042
20-Jan-2019 13:01:31.630, 0.0025,-0.0065,-0.9884,-0.0096,-0.0028, 0.0125,-0.0094,-0.0138,-0.0129, 0.0127, 0.0030, 0.2041
20-Jan-2019 13:01:31.640, 0.0035,-0.0062,-0.9873,-0.0102,-0.0035, 0.0115,-0.0094,-0.0138,-0.0107, 0.0127, 0.0030, 0.2042
20-Jan-2019 13:01:31.650, 0.0035,-0.0039,-0.9867,-0.0092,-0.0032, 0.0127,-0.0094,-0.0149,-0.0097, 0.0127, 0.0030, 0.2042
20-Jan-2019 13:01:31.660, 0.0027,-0.0029,-0.9864,-0.0092,-0.0009, 0.0133,-0.0116,-0.0128,-0.0118, 0.0127, 0.0030, 0.2042
20-Jan-2019 13:01:31.670, 0.0031,-0.0019,-0.9868,-0.0100, 0.0001, 0.0135,-0.0094,-0.0149,-0.0118, 0.0127, 0.0030, 0.2042
20-Jan-2019 13:01:31.680, 0.0029,-0.0035,-0.9863,-0.0095, 0.0011, 0.0131,-0.0084,-0.0149,-0.0118, 0.0127, 0.0030, 0.2042
20-Jan-2019 13:01:31.690, 0.0034,-0.0063,-0.9868,-0.0097,-0.0005, 0.0136,-0.0094,-0.0149,-0.0118, 0.0127, 0.0030, 0.2042
20-Jan-2019 13:01:31.700, 0.0027,-0.0057,-0.9865,-0.0093,-0.0033, 0.0131,-0.0105,-0.0149,-0.0118, 0.0127, 0.0030, 0.2042
20-Jan-2019 13:01:31.709, 0.0029,-0.0055,-0.9875,-0.0100,-0.0027, 0.0134,-0.0084,-0.0138,-0.0107, 0.0127, 0.0030, 0.2042
20-Jan-2019 13:01:31.720, 0.0028,-0.0047,-0.9863,-0.0097,-0.0025, 0.0124,-0.0105,-0.0138,-0.0118, 0.0126, 0.0030, 0.2042
20-Jan-2019 13:01:31.729, 0.0025,-0.0033,-0.9861,-0.0098,-0.0017, 0.0136,-0.0094,-0.0149,-0.0129, 0.0126, 0.0030, 0.2042
20-Jan-2019 13:01:31.739, 0.0028,-0.0029,-0.9869,-0.0101,-0.0003, 0.0138,-0.0094,-0.0128,-0.0118, 0.0126, 0.0030, 0.2042
20-Jan-2019 13:01:31.749, 0.0037,-0.0034,-0.9873,-0.0098, 0.0001, 0.0130,-0.0105,-0.0149,-0.0118, 0.0126, 0.0030, 0.2042
20-Jan-2019 13:01:31.760, 0.0038,-0.0051,-0.9871,-0.0089,-0.0005, 0.0127,-0.0116,-0.0138,-0.0118, 0.0126, 0.0030, 0.2042
20-Jan-2019 13:01:31.769, 0.0036,-0.0056,-0.9873,-0.0088,-0.0021, 0.0128,-0.0094,-0.0138,-0.0129, 0.0126, 0.0030, 0.2042
20-Jan-2019 13:01:31.779, 0.0031,-0.0054,-0.9872,-0.0090,-0.0026, 0.0126,-0.0105,-0.0128,-0.0129, 0.0126, 0.0029, 0.2042
20-Jan-2019 13:01:31.789, 0.0025,-0.0049,-0.9871,-0.0096,-0.0024, 0.0127,-0.0094,-0.0149,-0.0107, 0.0126, 0.0029, 0.2042
20-Jan-2019 13:01:31.799, 0.0033,-0.0033,-0.9879,-0.0101,-0.0019, 0.0128,-0.0094,-0.0138,-0.0118, 0.0126, 0.0029, 0.2042
20-Jan-2019 13:01:31.808, 0.0030,-0.0022,-0.9861,-0.0093,-0.0004, 0.0120,-0.0094,-0.0160,-0.0118, 0.0126, 0.0029, 0.2042
20-Jan-2019 13:01:31.819, 0.0032,-0.0033,-0.9867,-0.0094,-0.0004, 0.0132,-0.0094,-0.0149,-0.0118, 0.0126, 0.0029, 0.2042
20-Jan-2019 13:01:31.828, 0.0040,-0.0042,-0.9875,-0.0094,-0.0004, 0.0132,-0.0084,-0.0138,-0.0118, 0.0126, 0.0029, 0.2042
20-Jan-2019 13:01:31.838, 0.0035,-0.0054,-0.9872,-0.0086,-0.0013, 0.0125,-0.0094,-0.0138,-0.0118, 0.0126, 0.0029, 0.2042
20-Jan-2019 13:01:31.848, 0.0034,-0.0054,-0.9869,-0.0092,-0.0024, 0.0130,-0.0094,-0.0138,-0.0129, 0.0126, 0.0029, 0.2042
20-Jan-2019 13:01:31.858, 0.0032,-0.0048,-0.9863,-0.0092,-0.0024, 0.0130,-0.0094,-0.0160,-0.0118, 0.0126, 0.0029, 0.2042
20-Jan-2019 13:01:31.868, 0.0027,-0.0049,-0.9866,-0.0094,-0.0019, 0.0136,-0.0105,-0.0149,-0.0129, 0.0126, 0.0029, 0.2042
20-Jan-2019 13:01:31.878, 0.0022,-0.0034,-0.9871,-0.0099,-0.0020, 0.0133,-0.0084,-0.0138,-0.0129, 0.0126, 0.0029, 0.2042
20-Jan-2019 13:01:31.888, 0.0030,-0.0038,-0.9870,-0.0103,-0.0005, 0.0128,-0.0115,-0.0149,-0.0118, 0.0126, 0.0029, 0.2041
20-Jan-2019 13:01:31.898, 0.0043,-0.0041,-0.9872,-0.0095,-0.0008, 0.0130,-0.0094,-0.0138,-0.0129, 0.0126, 0.0029, 0.2041
20-Jan-2019 13:01:31.908, 0.0042,-0.0047,-0.9888,-0.0083,-0.0012, 0.0127,-0.0094,-0.0149,-0.0118, 0.0126, 0.0029, 0.2042
20-Jan-2019 13:01:31.918, 0.0032,-0.0053,-0.9873,-0.0083,-0.0017, 0.0111,-0.0094,-0.0149,-0.0118, 0.0125, 0.0029, 0.2042
20-Jan-2019 13:01:31.928, 0.0031,-0.0053,-0.9869,-0.0093,-0.0024, 0.0127,-0.0084,-0.0138,-0.0118, 0.0125, 0.0029, 0.2042
20-Jan-2019 13:01:31.937, 0.0020,-0.0041,-0.9875,-0.0095,-0.0024, 0.0130,-0.0105,-0.0128,-0.0118, 0.0125, 0.0029, 0.2042
20-Jan-2019 13:01:31.948, 0.0019,-0.0038,-0.9868,-0.0105,-0.0012, 0.0124,-0.0094,-0.0160,-0.0118, 0.0125, 0.0029, 0.2042
20-Jan-2019 13:01:31.957, 0.0030,-0.0032,-0.9859,-0.0106,-0.0008, 0.0131,-0.0073,-0.0149,-0.0118, 0.0125, 0.0029, 0.2042
20-Jan-2019 13:01:31.967, 0.0028,-0.0042,-0.9875,-0.0097,-0.0012, 0.0124,-0.0094,-0.0149,-0.0129, 0.0125, 0.0029, 0.2042
20-Jan-2019 13:01:31.977, 0.0031,-0.0060,-0.9872,-0.0097,-0.0012, 0.0124,-0.0094,-0.0128,-0.0129, 0.0125, 0.0029, 0.2042
20-Jan-2019 13:01:31.987, 0.0037,-0.0059,-0.9874,-0.0095,-0.0031, 0.0127,-0.0094,-0.0149,-0.0118, 0.0125, 0.0029, 0.2042
20-Jan-2019 13:01:31.997, 0.0046,-0.0055,-0.9869,-0.0088,-0.0030, 0.0125,-0.0094,-0.0138,-0.0118, 0.0125, 0.0030, 0.2042
20-Jan-2019 13:01:32.007, 0.0031,-0.0046,-0.9871,-0.0079,-0.0026, 0.0131,-0.0073,-0.0138,-0.0128, 0.0125, 0.0030, 0.2042
20-Jan-2019 13:01:32.017, 0.0017,-0.0025,-0.9866,-0.0095,-0.0017, 0.0128,-0.0094,-0.0138,-0.0129, 0.0125, 0.0030, 0.2042
20-Jan-2019 13:01:32.027, 0.0034,-0.0023,-0.9867,-0.0108, 0.0005, 0.0133,-0.0084,-0.0117,-0.0107, 0.0125, 0.0030, 0.2042
20-Jan-2019 13:01:32.037, 0.0031,-0.0050,-0.9873,-0.0091, 0.0007, 0.0132,-0.0115,-0.0149,-0.0118, 0.0125, 0.0030, 0.2042
20-Jan-2019 13:01:32.047, 0.0022,-0.0052,-0.9865,-0.0094,-0.0021, 0.0126,-0.0094,-0.0138,-0.0107, 0.0125, 0.0030, 0.2042
20-Jan-2019 13:01:32.057, 0.0028,-0.0052,-0.9872,-0.0103,-0.0022, 0.0134,-0.0084,-0.0149,-0.0118, 0.0125, 0.0030, 0.2042
20-Jan-2019 13:01:32.067, 0.0034,-0.0055,-0.9877,-0.0097,-0.0023, 0.0128,-0.0105,-0.0138,-0.0118, 0.0125, 0.0030, 0.2042
20-Jan-2019 13:01:32.077, 0.0040,-0.0045,-0.9865,-0.0090,-0.0025, 0.0122,-0.0083,-0.0149,-0.0139, 0.0125, 0.0030, 0.2042
20-Jan-2019 13:01:32.087, 0.0021,-0.0028,-0.9861,-0.0084,-0.0015, 0.0135,-0.0084,-0.0149,-0.0118, 0.0125, 0.0030, 0.2042
20-Jan-2019 13:01:32.097, 0.0021,-0.0024,-0.9872,-0.0104, 0.0002, 0.0139,-0.0084,-0.0138,-0.0107, 0.0125, 0.0030, 0.2042
20-Jan-2019 13:01:32.106, 0.0015,-0.0029,-0.9873,-0.0104, 0.0006, 0.0127,-0.0094,-0.0128,-0.0129, 0.0125, 0.0030, 0.2042
20-Jan-2019 13:01:32.117, 0.0027,-0.0055,-0.9863,-0.0109, 0.0000, 0.0126,-0.0105,-0.0160,-0.0118, 0.0124, 0.0030, 0.2042
20-Jan-2019 13:01:32.126, 0.0037,-0.0065,-0.9868,-0.0098,-0.0025, 0.0136,-0.0094,-0.0160,-0.0107, 0.0124, 0.0030, 0.2042
20-Jan-2019 13:01:32.136, 0.0033,-0.0053,-0.9870,-0.0088,-0.0035, 0.0131,-0.0084,-0.0117,-0.0118, 0.0124, 0.0030, 0.2042
20-Jan-2019 13:01:32.146, 0.0033,-0.0037,-0.9883,-0.0092,-0.0024, 0.0129,-0.0094,-0.0138,-0.0129, 0.0124, 0.0030, 0.2042
20-Jan-2019 13:01:32.156, 0.0033,-0.0030,-0.9867,-0.0091,-0.0007, 0.0116,-0.0094,-0.0149,-0.0118, 0.0124, 0.0030, 0.2042
20-Jan-2019 13:01:32.166, 0.0030,-0.0029,-0.9866,-0.0091,-0.0000, 0.0132,-0.0094,-0.0159,-0.0129, 0.0124, 0.0030, 0.2042
20-Jan-2019 13:01:32.176, 0.0029,-0.0034,-0.9861,-0.0094, 0.0001, 0.0134,-0.0094,-0.0159,-0.0139, 0.0124, 0.0030, 0.2041
20-Jan-2019 13:01:32.186, 0.0028,-0.0047,-0.9868,-0.0095,-0.0004, 0.0138,-0.0094,-0.0138,-0.0118, 0.0124, 0.0030, 0.2042
20-Jan-2019 13:01:32.196, 0.0036,-0.0054,-0.9873,-0.0096,-0.0017, 0.0131,-0.0083,-0.0159,-0.0118, 0.0124, 0.0030, 0.2042
20-Jan-2019 13:01:32.206, 0.0035,-0.0051,-0.9869,-0.0088,-0.0024, 0.0126,-0.0084,-0.0149,-0.0118, 0.0124, 0.0030, 0.2042
20-Jan-2019 13:01:32.216, 0.0035,-0.0044,-0.9872,-0.0089,-0.0021, 0.0131,-0.0115,-0.0149,-0.0139, 0.0124, 0.0030, 0.2041
20-Jan-2019 13:01:32.226, 0.0032,-0.0028,-0.9867,-0.0088,-0.0014, 0.0127,-0.0094,-0.0149,-0.0118, 0.0124, 0.0030, 0.2042
20-Jan-2019 13:01:32.236, 0.0031,-0.0035,-0.9869,-0.0093,-0.0005, 0.0131,-0.0094,-0.0138,-0.0118, 0.0124, 0.0030, 0.2042
20-Jan-2019 13:01:32.246, 0.0036,-0.0033,-0.9872,-0.0093,-0.0005, 0.0131,-0.0094,-0.0138,-0.0118, 0.0124, 0.0030, 0.2042
20-Jan-2019 13:01:32.256, 0.0032,-0.0037,-0.9871,-0.0088,-0.0003, 0.0128,-0.0094,-0.0138,-0.0139, 0.0124, 0.0030, 0.2041
20-Jan-2019 13:01:32.266, 0.0032,-0.0053,-0.9872,-0.0092,-0.0007, 0.0128,-0.0073,-0.0159,-0.0107, 0.0124, 0.0030, 0.2041
20-Jan-2019 13:01:32.275, 0.0037,-0.0057,-0.9880,-0.0091,-0.0023, 0.0127,-0.0094,-0.0138,-0.0118, 0.0123, 0.0030, 0.2041
20-Jan-2019 13:01:32.285, 0.0038,-0.0058,-0.9871,-0.0087,-0.0027, 0.0119,-0.0084,-0.0138,-0.0118, 0.0123, 0.0030, 0.2041
20-Jan-2019 13:01:32.295, 0.0021,-0.0047,-0.9862,-0.0086,-0.0029, 0.0128,-0.0084,-0.0138,-0.0129, 0.0123, 0.0030, 0.2041
20-Jan-2019 13:01:32.305, 0.0022,-0.0032,-0.9875,-0.0102,-0.0018, 0.0137,-0.0094,-0.0138,-0.0129, 0.0123, 0.0030, 0.2041
20-Jan-2019 13:01:32.315, 0.0025,-0.0029,-0.9867,-0.0102,-0.0002, 0.0124,-0.0084,-0.0138,-0.0129, 0.0123, 0.0030, 0.2041
20-Jan-2019 13:01:32.326, 0.0033,-0.0034,-0.9870,-0.0099, 0.0001, 0.0132,-0.0083,-0.0149,-0.0129, 0.0123, 0.0030, 0.2041
20-Jan-2019 13:01:32.335, 0.0043,-0.0052,-0.9870,-0.0090,-0.0004, 0.0130,-0.0084,-0.0149,-0.0107, 0.0123, 0.0030, 0.2041
20-Jan-2019 13:01:32.345, 0.0032,-0.0050,-0.9864,-0.0080,-0.0022, 0.0129,-0.0094,-0.0138,-0.0107, 0.0123, 0.0030, 0.2041
20-Jan-2019 13:01:32.355, 0.0035,-0.0052,-0.9872,-0.0091,-0.0020, 0.0135,-0.0084,-0.0138,-0.0107, 0.0123, 0.0030, 0.2041
20-Jan-2019 13:01:32.365, 0.0025,-0.0049,-0.9867,-0.0088,-0.0022, 0.0128,-0.0084,-0.0149,-0.0118, 0.0123, 0.0030, 0.2041
20-Jan-2019 13:01:32.375, 0.0026,-0.0044,-0.9872,-0.0098,-0.0019, 0.0132,-0.0084,-0.0149,-0.0118, 0.0123, 0.0030, 0.2041
20-Jan-2019 13:01:32.385, 0.0023,-0.0023,-0.9874,-0.0097,-0.0013, 0.0127,-0.0084,-0.0138,-0.0129, 0.0123, 0.0030, 0.2041
20-Jan-2019 13:01:32.395, 0.0032,-0.0036,-0.9874,-0.0100, 0.0007, 0.0125,-0.0094,-0.0138,-0.0118, 0.0123, 0.0030, 0.2041
20-Jan-2019 13:01:32.405, 0.0031,-0.0046,-0.9861,-0.0091,-0.0006, 0.0125,-0.0084,-0.0138,-0.0118, 0.0123, 0.0030, 0.2041
20-Jan-2019 13:01:32.416, 0.0038,-0.0058,-0.9871,-0.0092,-0.0015, 0.0138,-0.0083,-0.0149,-0.0129, 0.0123, 0.0030, 0.2041
20-Jan-2019 13:01:32.425, 0.0043,-0.0063,-0.9884,-0.0084,-0.0027, 0.0129,-0.0094,-0.0149,-0.0118, 0.0123, 0.0030, 0.2041
20-Jan-2019 13:01:32.435, 0.0032,-0.0056,-0.9873,-0.0079,-0.0033, 0.0115,-0.0094,-0.0149,-0.0129, 0.0123, 0.0030, 0.2041
20-Jan-2019 13:01:32.445, 0.0031,-0.0035,-0.9876,-0.0090,-0.0026, 0.0126,-0.0105,-0.0149,-0.0118, 0.0123, 0.0030, 0.2041
20-Jan-2019 13:01:32.455, 0.0024,-0.0031,-0.9878,-0.0092,-0.0005, 0.0123,-0.0084,-0.0128,-0.0118, 0.0123, 0.0030, 0.2041
20-Jan-2019 13:01:32.466, 0.0020,-0.0035,-0.9866,-0.0098,-0.0000, 0.0121,-0.0083,-0.0159,-0.0129, 0.0122, 0.0030, 0.2041
20-Jan-2019 13:01:32.474, 0.0023,-0.0044,-0.9871,-0.0102,-0.0004, 0.0133,-0.0084,-0.0138,-0.0129, 0.0122, 0.0030, 0.2041
20-Jan-2019 13:01:32.484, 0.0046,-0.0060,-0.9879,-0.0099,-0.0014, 0.0128,-0.0094,-0.0149,-0.0129, 0.0122, 0.0030, 0.2041
20-Jan-2019 13:01:32.494, 0.0036,-0.0056,-0.9869,-0.0076,-0.0030, 0.0120,-0.0094,-0.0138,-0.0129, 0.0122, 0.0031, 0.2041
20-Jan-2019 13:01:32.504, 0.0030,-0.0051,-0.9874,-0.0086,-0.0025, 0.0130,-0.0084,-0.0149,-0.0118, 0.0122, 0.0031, 0.2041
20-Jan-2019 13:01:32.515, 0.0033,-0.0040,-0.9877,-0.0092,-0.0020, 0.0125,-0.0083,-0.0149,-0.0129, 0.0122, 0.0031, 0.2041
20-Jan-2019 13:01:32.524, 0.0027,-0.0022,-0.9865,-0.0089,-0.0009, 0.0122,-0.0094,-0.0159,-0.0129, 0.0122, 0.0031, 0.2041
20-Jan-2019 13:01:32.534, 0.0017,-0.0028,-0.9863,-0.0094, 0.0009, 0.0135,-0.0094,-0.0149,-0.0118, 0.0122, 0.0031, 0.2041
20-Jan-2019 13:01:32.545, 0.0029,-0.0037,-0.9873,-0.0105, 0.0002, 0.0136,-0.0094,-0.0138,-0.0118, 0.0122, 0.0031, 0.2041
20-Jan-2019 13:01:32.554, 0.0034,-0.0041,-0.9866,-0.0093,-0.0006, 0.0127,-0.0105,-0.0149,-0.0118, 0.0122, 0.0031, 0.2041
20-Jan-2019 13:01:32.564, 0.0039,-0.0062,-0.9873,-0.0088,-0.0011, 0.0133,-0.0083,-0.0149,-0.0129, 0.0122, 0.0031, 0.2041
20-Jan-2019 13:01:32.574, 0.0031,-0.0057,-0.9867,-0.0082,-0.0031, 0.0126,-0.0094,-0.0149,-0.0118, 0.0122, 0.0031, 0.2041
20-Jan-2019 13:01:32.583, 0.0038,-0.0043,-0.9868,-0.0091,-0.0026, 0.0132,-0.0084,-0.0149,-0.0118, 0.0122, 0.0031, 0.2041
20-Jan-2019 13:01:32.594, 0.0030,-0.0031,-0.9874,-0.0083,-0.0012, 0.0131,-0.0084,-0.0117,-0.0139, 0.0122, 0.0031, 0.2041
20-Jan-2019 13:01:32.604, 0.0025,-0.0028,-0.9865,-0.0092, 0.0000, 0.0126,-0.0094,-0.0149,-0.0118, 0.0122, 0.0031, 0.2041
20-Jan-2019 13:01:32.613, 0.0016,-0.0039,-0.9865,-0.0097, 0.0003, 0.0135,-0.0094,-0.0149,-0.0107, 0.0122, 0.0031, 0.2041
20-Jan-2019 13:01:32.624, 0.0021,-0.0047,-0.9867,-0.0106,-0.0008, 0.0134,-0.0094,-0.0138,-0.0118, 0.0122, 0.0031, 0.2041
20-Jan-2019 13:01:32.633, 0.0029,-0.0062,-0.9877,-0.0101,-0.0016, 0.0132,-0.0073,-0.0149,-0.0118, 0.0121, 0.0031, 0.2041
20-Jan-2019 13:01:32.644, 0.0043,-0.0067,-0.9870,-0.0092,-0.0031, 0.0122,-0.0094,-0.0149,-0.0107, 0.0121, 0.0031, 0.2041
20-Jan-2019 13:01:32.654, 0.0039,-0.0052,-0.9868,-0.0078,-0.0036, 0.0130,-0.0105,-0.0138,-0.0129, 0.0121, 0.0031, 0.2041
20-Jan-2019 13:01:32.663, 0.0041,-0.0051,-0.9875,-0.0082,-0.0022, 0.0131,-0.0094,-0.0149,-0.0129, 0.0121, 0.0031, 0.2041
20-Jan-2019 13:01:32.673, 0.0040,-0.0034,-0.9865,-0.0080,-0.0020, 0.0125,-0.0105,-0.0160,-0.0118, 0.0121, 0.0031, 0.2041
20-Jan-2019 13:01:32.683, 0.0029,-0.0030,-0.9868,-0.0081,-0.0004, 0.0134,-0.0094,-0.0149,-0.0118, 0.0121, 0.0031, 0.2041
20-Jan-2019 13:01:32.693, 0.0025,-0.0042,-0.9872,-0.0092, 0.0001, 0.0131,-0.0115,-0.0149,-0.0129, 0.0121, 0.0031, 0.2041
20-Jan-2019 13:01:32.703, 0.0025,-0.0050,-0.9863,-0.0096,-0.0011, 0.0127,-0.0094,-0.0149,-0.0129, 0.0121, 0.0031, 0.2041
20-Jan-2019 13:01:32.713, 0.0018,-0.0066,-0.9875,-0.0096,-0.0019, 0.0136,-0.0094,-0.0128,-0.0118, 0.0121, 0.0031, 0.2041
20-Jan-2019 13:01:32.722, 0.0029,-0.0055,-0.9875,-0.0103,-0.0035, 0.0124,-0.0105,-0.0138,-0.0139, 0.0121, 0.0030, 0.2041
20-Jan-2019 13:01:32.732, 0.0034,-0.0041,-0.9879,-0.0091,-0.0025, 0.0125,-0.0084,-0.0127,-0.0128, 0.0121, 0.0030, 0.2041
20-Jan-2019 13:01:32.742, 0.0032,-0.0026,-0.9877,-0.0087,-0.0011, 0.0120,-0.0094,-0.0149,-0.0107, 0.0121, 0.0030, 0.2041
20-Jan-2019 13:01:32.752, 0.0034,-0.0019,-0.9859,-0.0089, 0.0004, 0.0122,-0.0084,-0.0138,-0.0129, 0.0121, 0.0030, 0.2041
20-Jan-2019 13:01:32.762, 0.0025,-0.0035,-0.9867,-0.0087, 0.0011, 0.0140,-0.0094,-0.0149,-0.0129, 0.0121, 0.0030, 0.2041
20-Jan-2019 13:01:32.773, 0.0022,-0.0048,-0.9873,-0.0095,-0.0004, 0.0132,-0.0084,-0.0160,-0.0097, 0.0120, 0.0030, 0.2041
20-Jan-2019 13:01:32.782, 0.0033,-0.0058,-0.9877,-0.0099,-0.0018, 0.0126,-0.0084,-0.0138,-0.0118, 0.0120, 0.0031, 0.2041
20-Jan-2019 13:01:32.793, 0.0035,-0.0055,-0.9871,-0.0087,-0.0028, 0.0123,-0.0084,-0.0149,-0.0118, 0.0120, 0.0031, 0.2041
20-Jan-2019 13:01:32.803, 0.0032,-0.0050,-0.9874,-0.0086,-0.0024, 0.0128,-0.0094,-0.0149,-0.0129, 0.0120, 0.0031, 0.2041
20-Jan-2019 13:01:32.812, 0.0029,-0.0033,-0.9880,-0.0088,-0.0019, 0.0125,-0.0094,-0.0170,-0.0118, 0.0120, 0.0031, 0.2041
20-Jan-2019 13:01:32.822, 0.0033,-0.0012,-0.9869,-0.0091,-0.0003, 0.0119,-0.0105,-0.0160,-0.0129, 0.0120, 0.0030, 0.2041
20-Jan-2019 13:01:32.832, 0.0036,-0.0026,-0.9871,-0.0087, 0.0018, 0.0130,-0.0073,-0.0138,-0.0118, 0.0120, 0.0031, 0.2041
20-Jan-2019 13:01:32.842, 0.0037,-0.0051,-0.9867,-0.0084, 0.0005, 0.0128,-0.0094,-0.0149,-0.0107, 0.0120, 0.0031, 0.2041
20-Jan-2019 13:01:32.852, 0.0025,-0.0072,-0.9875,-0.0083,-0.0020, 0.0132,-0.0094,-0.0160,-0.0107, 0.0120, 0.0031, 0.2041
20-Jan-2019 13:01:32.862, 0.0033,-0.0067,-0.9875,-0.0094,-0.0041, 0.0124,-0.0084,-0.0138,-0.0118, 0.0120, 0.0031, 0.2041
20-Jan-2019 13:01:32.872, 0.0029,-0.0059,-0.9862,-0.0087,-0.0037, 0.0125,-0.0094,-0.0138,-0.0118, 0.0120, 0.0031, 0.2041
20-Jan-2019 13:01:32.882, 0.0031,-0.0033,-0.9870,-0.0090,-0.0028, 0.0138,-0.0094,-0.0138,-0.0107, 0.0120, 0.0031, 0.2041
20-Jan-2019 13:01:32.892, 0.0019,-0.0027,-0.9876,-0.0088,-0.0002, 0.0130,-0.0105,-0.0138,-0.0118, 0.0120, 0.0031, 0.2041
20-Jan-2019 13:01:32.902, 0.0025,-0.0034,-0.9872,-0.0100, 0.0004, 0.0123,-0.0084,-0.0149,-0.0118, 0.0120, 0.0031, 0.2041
20-Jan-2019 13:01:32.911, 0.0043,-0.0044,-0.9866,-0.0094,-0.0003, 0.0128,-0.0083,-0.0149,-0.0129, 0.0119, 0.0031, 0.2041
20-Jan-2019 13:01:32.922, 0.0037,-0.0060,-0.9876,-0.0077,-0.0013, 0.0134,-0.0084,-0.0127,-0.0128, 0.0119, 0.0031, 0.2041
20-Jan-2019 13:01:32.931, 0.0023,-0.0059,-0.9876,-0.0082,-0.0029, 0.0123,-0.0094,-0.0138,-0.0129, 0.0119, 0.0031, 0.2041
20-Jan-2019 13:01:32.941, 0.0025,-0.0056,-0.9879,-0.0096,-0.0028, 0.0123,-0.0094,-0.0149,-0.0129, 0.0119, 0.0031, 0.2041
20-Jan-2019 13:01:32.951, 0.0027,-0.0037,-0.9870,-0.0094,-0.0026, 0.0120,-0.0094,-0.0138,-0.0118, 0.0119, 0.0031, 0.2041
20-Jan-2019 13:01:32.961, 0.0031,-0.0026,-0.9868,-0.0092,-0.0007, 0.0129,-0.0094,-0.0149,-0.0129, 0.0119, 0.0031, 0.2041
20-Jan-2019 13:01:32.971, 0.0020,-0.0026,-0.9863,-0.0088, 0.0005, 0.0131,-0.0094,-0.0138,-0.0129, 0.0119, 0.0031, 0.2041
20-Jan-2019 13:01:32.981, 0.0022,-0.0035,-0.9869,-0.0099, 0.0005, 0.0136,-0.0105,-0.0149,-0.0129, 0.0119, 0.0031, 0.2041
20-Jan-2019 13:01:32.991, 0.0037,-0.0051,-0.9869,-0.0097,-0.0004, 0.0131,-0.0084,-0.0138,-0.0118, 0.0119, 0.0031, 0.2041
20-Jan-2019 13:01:33.001, 0.0035,-0.0067,-0.9866,-0.0082,-0.0020, 0.0130,-0.0084,-0.0149,-0.0107, 0.0119, 0.0031, 0.2041
20-Jan-2019 13:01:33.011, 0.0040,-0.0061,-0.9873,-0.0084,-0.0037, 0.0133,-0.0094,-0.0138,-0.0107, 0.0119, 0.0031, 0.2041
20-Jan-2019 13:01:33.021, 0.0027,-0.0051,-0.9872,-0.0079,-0.0031, 0.0127,-0.0094,-0.0149,-0.0107, 0.0119, 0.0031, 0.2041
20-Jan-2019 13:01:33.031, 0.0025,-0.0036,-0.9875,-0.0092,-0.0020, 0.0127,-0.0084,-0.0138,-0.0118, 0.0119, 0.0031, 0.2041
20-Jan-2019 13:01:33.040, 0.0033,-0.0020,-0.9868,-0.0094,-0.0005, 0.0124,-0.0083,-0.0149,-0.0139, 0.0119, 0.0031, 0.2041
20-Jan-2019 13:01:33.051, 0.0029,-0.0028,-0.9857,-0.0086, 0.0011, 0.0131,-0.0094,-0.0160,-0.0118, 0.0119, 0.0031, 0.2041
20-Jan-2019 13:01:33.060, 0.0025,-0.0045,-0.9875,-0.0090, 0.0003, 0.0142,-0.0083,-0.0149,-0.0129, 0.0119, 0.0031, 0.2041
20-Jan-2019 13:01:33.070, 0.0034,-0.0060,-0.9874,-0.0094,-0.0014, 0.0124,-0.0094,-0.0138,-0.0129, 0.0119, 0.0031, 0.2041
20-Jan-2019 13:01:33.080, 0.0039,-0.0073,-0.9866,-0.0084,-0.0029, 0.0125,-0.0105,-0.0160,-0.0118, 0.0118, 0.0031, 0.2041
20-Jan-2019 13:01:33.090, 0.0036,-0.0063,-0.9858,-0.0079,-0.0042, 0.0133,-0.0105,-0.0160,-0.0107, 0.0118, 0.0031, 0.2041
20-Jan-2019 13:01:33.100, 0.0035,-0.0037,-0.9864,-0.0083,-0.0032, 0.0141,-0.0094,-0.0149,-0.0118, 0.0118, 0.0031, 0.2041
20-Jan-2019 13:01:33.111, 0.0028,-0.0031,-0.9869,-0.0083,-0.0006, 0.0135,-0.0073,-0.0138,-0.0118, 0.0118, 0.0031, 0.2041
20-Jan-2019 13:01:33.120, 0.0029,-0.0026,-0.9873,-0.0090, 0.0000, 0.0130,-0.0094,-0.0149,-0.0129, 0.0118, 0.0031, 0.2041
20-Jan-2019 13:01:33.130, 0.0029,-0.0036,-0.9871,-0.0089, 0.0004, 0.0126,-0.0105,-0.0138,-0.0129, 0.0118, 0.0031, 0.2041
20-Jan-2019 13:01:33.140, 0.0043,-0.0054,-0.9877,-0.0089,-0.0005, 0.0128,-0.0083,-0.0149,-0.0129, 0.0118, 0.0031, 0.2041
20-Jan-2019 13:01:33.150, 0.0035,-0.0065,-0.9881,-0.0076,-0.0023, 0.0122,-0.0084,-0.0128,-0.0118, 0.0118, 0.0031, 0.2041
20-Jan-2019 13:01:33.160, 0.0033,-0.0057,-0.9871,-0.0083,-0.0034, 0.0118,-0.0094,-0.0149,-0.0107, 0.0118, 0.0031, 0.2041
20-Jan-2019 13:01:33.170, 0.0028,-0.0040,-0.9870,-0.0086,-0.0026, 0.0128,-0.0094,-0.0149,-0.0129, 0.0118, 0.0031, 0.2041
20-Jan-2019 13:01:33.179, 0.0030,-0.0028,-0.9869,-0.0090,-0.0009, 0.0129,-0.0094,-0.0138,-0.0118, 0.0118, 0.0031, 0.2041
20-Jan-2019 13:01:33.190, 0.0023,-0.0025,-0.9864,-0.0088, 0.0003, 0.0130,-0.0094,-0.0160,-0.0118, 0.0118, 0.0031, 0.2041
20-Jan-2019 13:01:33.199, 0.0031,-0.0031,-0.9870,-0.0095, 0.0006, 0.0136,-0.0094,-0.0149,-0.0118, 0.0118, 0.0031, 0.2041
20-Jan-2019 13:01:33.210, 0.0024,-0.0045,-0.9871,-0.0087,-0.0000, 0.0129,-0.0094,-0.0138,-0.0118, 0.0118, 0.0031, 0.2041
20-Jan-2019 13:01:33.220, 0.0021,-0.0062,-0.9877,-0.0094,-0.0014, 0.0128,-0.0094,-0.0138,-0.0118, 0.0118, 0.0031, 0.2041
20-Jan-2019 13:01:33.229, 0.0032,-0.0061,-0.9875,-0.0097,-0.0031, 0.0122,-0.0084,-0.0138,-0.0118, 0.0118, 0.0031, 0.2041
20-Jan-2019 13:01:33.239, 0.0031,-0.0038,-0.9869,-0.0086,-0.0030, 0.0124,-0.0084,-0.0138,-0.0107, 0.0118, 0.0031, 0.2041
20-Jan-2019 13:01:33.249, 0.0030,-0.0036,-0.9872,-0.0087,-0.0007, 0.0130,-0.0094,-0.0138,-0.0118, 0.0118, 0.0031, 0.2041
20-Jan-2019 13:01:33.259, 0.0032,-0.0029,-0.9870,-0.0088,-0.0005, 0.0127,-0.0105,-0.0149,-0.0129, 0.0118, 0.0031, 0.2041
20-Jan-2019 13:01:33.269, 0.0033,-0.0037,-0.9870,-0.0085, 0.0002, 0.0129,-0.0084,-0.0138,-0.0129, 0.0118, 0.0031, 0.2041
20-Jan-2019 13:01:33.279, 0.0027,-0.0046,-0.9866,-0.0084,-0.0006, 0.0129,-0.0105,-0.0138,-0.0129, 0.0118, 0.0031, 0.2041
20-Jan-2019 13:01:33.289, 0.0028,-0.0049,-0.9876,-0.0090,-0.0015, 0.0134,-0.0094,-0.0138,-0.0118, 0.0117, 0.0031, 0.2041
20-Jan-2019 13:01:33.299, 0.0028,-0.0058,-0.9873,-0.0089,-0.0018, 0.0123,-0.0094,-0.0160,-0.0107, 0.0117, 0.0031, 0.2041
20-Jan-2019 13:01:33.309, 0.0029,-0.0043,-0.9863,-0.0089,-0.0026, 0.0126,-0.0094,-0.0149,-0.0118, 0.0117, 0.0031, 0.2041
20-Jan-2019 13:01:33.318, 0.0029,-0.0040,-0.9866,-0.0088,-0.0012, 0.0136,-0.0094,-0.0138,-0.0107, 0.0117, 0.0031, 0.2041
20-Jan-2019 13:01:33.328, 0.0030,-0.0035,-0.9870,-0.0089,-0.0008, 0.0133,-0.0084,-0.0138,-0.0129, 0.0117, 0.0031, 0.2041
20-Jan-2019 13:01:33.338, 0.0029,-0.0036,-0.9861,-0.0087,-0.0004, 0.0129,-0.0105,-0.0149,-0.0107, 0.0117, 0.0031, 0.2041
20-Jan-2019 13:01:33.348, 0.0035,-0.0048,-0.9862,-0.0088,-0.0005, 0.0138,-0.0094,-0.0160,-0.0118, 0.0117, 0.0031, 0.2042
20-Jan-2019 13:01:33.359, 0.0036,-0.0050,-0.9882,-0.0082,-0.0017, 0.0137,-0.0094,-0.0149,-0.0129, 0.0117, 0.0031, 0.2041
20-Jan-2019 13:01:33.369, 0.0026,-0.0054,-0.9879,-0.0081,-0.0019, 0.0118,-0.0084,-0.0138,-0.0129, 0.0117, 0.0031, 0.2042
20-Jan-2019 13:01:33.378, 0.0022,-0.0049,-0.9872,-0.0091,-0.0023, 0.0120,-0.0094,-0.0138,-0.0107, 0.0117, 0.0031, 0.2042
20-Jan-2019 13:01:33.388, 0.0036,-0.0043,-0.9865,-0.0095,-0.0018, 0.0127,-0.0094,-0.0138,-0.0107, 0.0117, 0.0031, 0.2042
20-Jan-2019 13:01:33.398, 0.0019,-0.0030,-0.9858,-0.0081,-0.0011, 0.0135,-0.0094,-0.0149,-0.0118, 0.0117, 0.0031, 0.2042
20-Jan-2019 13:01:33.408, 0.0028,-0.0040,-0.9869,-0.0097, 0.0002, 0.0141,-0.0083,-0.0149,-0.0129, 0.0117, 0.0031, 0.2042
20-Jan-2019 13:01:33.419, 0.0030,-0.0039,-0.9870,-0.0089,-0.0009, 0.0130,-0.0094,-0.0149,-0.0118, 0.0117, 0.0031, 0.2042
20-Jan-2019 13:01:33.428, 0.0032,-0.0049,-0.9877,-0.0086,-0.0008, 0.0129,-0.0105,-0.0149,-0.0118, 0.0117, 0.0031, 0.2042
20-Jan-2019 13:01:33.438, 0.0036,-0.0048,-0.9875,-0.0085,-0.0018, 0.0122,-0.0084,-0.0149,-0.0118, 0.0116, 0.0031, 0.2042
20-Jan-2019 13:01:33.447, 0.0030,-0.0047,-0.9860,-0.0080,-0.0017, 0.0125,-0.0105,-0.0138,-0.0107, 0.0116, 0.0031, 0.2042
20-Jan-2019 13:01:33.458, 0.0022,-0.0046,-0.9864,-0.0086,-0.0016, 0.0139,-0.0105,-0.0149,-0.0118, 0.0116, 0.0031, 0.2042
20-Jan-2019 13:01:33.468, 0.0033,-0.0041,-0.9870,-0.0094,-0.0015, 0.0135,-0.0105,-0.0138,-0.0107, 0.0116, 0.0031, 0.2042
20-Jan-2019 13:01:33.477, 0.0020,-0.0038,-0.9869,-0.0083,-0.0010, 0.0129,-0.0094,-0.0149,-0.0118, 0.0116, 0.0031, 0.2042
20-Jan-2019 13:01:33.488, 0.0028,-0.0042,-0.9865,-0.0096,-0.0007, 0.0131,-0.0094,-0.0149,-0.0118, 0.0116, 0.0031, 0.2042
20-Jan-2019 13:01:33.497, 0.0046,-0.0055,-0.9870,-0.0089,-0.0011, 0.0134,-0.0105,-0.0149,-0.0118, 0.0116, 0.0031, 0.2042
20-Jan-2019 13:01:33.508, 0.0040,-0.0049,-0.9869,-0.0071,-0.0024, 0.0129,-0.0094,-0.0149,-0.0118, 0.0116, 0.0031, 0.2042
20-Jan-2019 13:01:33.517, 0.0039,-0.0050,-0.9874,-0.0076,-0.0018, 0.0131,-0.0094,-0.0149,-0.0129, 0.0116, 0.0031, 0.2042
20-Jan-2019 13:01:33.527, 0.0035,-0.0042,-0.9871,-0.0077,-0.0019, 0.0126,-0.0094,-0.0149,-0.0118, 0.0116, 0.0031, 0.2042
20-Jan-2019 13:01:33.537, 0.0020,-0.0037,-0.9857,-0.0081,-0.0011, 0.0129,-0.0084,-0.0128,-0.0118, 0.0116, 0.0031, 0.2042
20-Jan-2019 13:01:33.547, 0.0019,-0.0032,-0.9862,-0.0096,-0.0006, 0.0142,-0.0083,-0.0159,-0.0118, 0.0116, 0.0031, 0.2042
20-Jan-2019 13:01:33.557, 0.0029,-0.0040,-0.9870,-0.0097,-0.0001, 0.0137,-0.0094,-0.0149,-0.0118, 0.0116, 0.0031, 0.2042
20-Jan-2019 13:01:33.567, 0.0027,-0.0051,-0.9876,-0.0087,-0.0009, 0.0129,-0.0084,-0.0149,-0.0118, 0.0116, 0.0031, 0.2042
20-Jan-2019 13:01:33.577, 0.0041,-0.0055,-0.9866,-0.0089,-0.0020, 0.0123,-0.0094,-0.0138,-0.0118, 0.0116, 0.0031, 0.2042
20-Jan-2019 13:01:33.588, 0.0040,-0.0051,-0.9869,-0.0075,-0.0024, 0.0133,-0.0094,-0.0138,-0.0118, 0.0116, 0.0031, 0.2042
20-Jan-2019 13:01:33.597, 0.0034,-0.0047,-0.9868,-0.0076,-0.0020, 0.0130,-0.0094,-0.0149,-0.0107, 0.0116, 0.0031, 0.2042
20-Jan-2019 13:01:33.607, 0.0025,-0.0035,-0.9869,-0.0082,-0.0015, 0.0131,-0.0094,-0.0149,-0.0129, 0.0116, 0.0031, 0.2042
20-Jan-2019 13:01:33.617, 0.0020,-0.0022,-0.9862,-0.0090,-0.0004, 0.0130,-0.0094,-0.0138,-0.0118, 0.0115, 0.0031, 0.2042
20-Jan-2019 13:01:33.626, 0.0027,-0.0027,-0.9865,-0.0096, 0.0009, 0.0138,-0.0083,-0.0159,-0.0118, 0.0115, 0.0031, 0.2042
20-Jan-2019 13:01:33.637, 0.0033,-0.0053,-0.9866,-0.0088, 0.0005, 0.0134,-0.0084,-0.0149,-0.0118, 0.0115, 0.0031, 0.2042
20-Jan-2019 13:01:33.647, 0.0026,-0.0053,-0.9869,-0.0082,-0.0022, 0.0134,-0.0105,-0.0149,-0.0107, 0.0115, 0.0031, 0.2042
20-Jan-2019 13:01:33.657, 0.0031,-0.0056,-0.9873,-0.0090,-0.0022, 0.0130,-0.0094,-0.0138,-0.0118, 0.0115, 0.0031, 0.2042
20-Jan-2019 13:01:33.666, 0.0035,-0.0062,-0.9875,-0.0084,-0.0025, 0.0126,-0.0084,-0.0138,-0.0118, 0.0115, 0.0031, 0.2042
20-Jan-2019 13:01:33.676, 0.0034,-0.0039,-0.9864,-0.0080,-0.0030, 0.0124,-0.0073,-0.0159,-0.0128, 0.0115, 0.0032, 0.2042
20-Jan-2019 13:01:33.686, 0.0020,-0.0027,-0.9864,-0.0081,-0.0007, 0.0136,-0.0084,-0.0138,-0.0118, 0.0115, 0.0032, 0.2042
20-Jan-2019 13:01:33.696, 0.0026,-0.0042,-0.9867,-0.0095, 0.0005, 0.0136,-0.0094,-0.0128,-0.0118, 0.0115, 0.0032, 0.2042
20-Jan-2019 13:01:33.707, 0.0025,-0.0050,-0.9867,-0.0089,-0.0010, 0.0132,-0.0084,-0.0149,-0.0118, 0.0115, 0.0032, 0.2042
20-Jan-2019 13:01:33.716, 0.0023,-0.0053,-0.9874,-0.0090,-0.0018, 0.0132,-0.0094,-0.0138,-0.0129, 0.0115, 0.0032, 0.2042
20-Jan-2019 13:01:33.726, 0.0023,-0.0051,-0.9870,-0.0093,-0.0022, 0.0125,-0.0094,-0.0138,-0.0129, 0.0115, 0.0032, 0.2042
20-Jan-2019 13:01:33.736, 0.0040,-0.0056,-0.9881,-0.0092,-0.0020, 0.0129,-0.0115,-0.0149,-0.0107, 0.0115, 0.0032, 0.2042
20-Jan-2019 13:01:33.746, 0.0038,-0.0047,-0.9873,-0.0076,-0.0025, 0.0118,-0.0105,-0.0149,-0.0139, 0.0115, 0.0031, 0.2042
20-Jan-2019 13:01:33.756, 0.0026,-0.0033,-0.9869,-0.0077,-0.0015, 0.0127,-0.0094,-0.0149,-0.0129, 0.0115, 0.0032, 0.2042
20-Jan-2019 13:01:33.766, 0.0030,-0.0040,-0.9874,-0.0089,-0.0001, 0.0130,-0.0105,-0.0149,-0.0118, 0.0115, 0.0031, 0.2042
20-Jan-2019 13:01:33.776, 0.0031,-0.0051,-0.9866,-0.0085,-0.0008, 0.0126,-0.0105,-0.0149,-0.0118, 0.0115, 0.0031, 0.2042
20-Jan-2019 13:01:33.786, 0.0021,-0.0043,-0.9873,-0.0084,-0.0019, 0.0134,-0.0094,-0.0127,-0.0139, 0.0115, 0.0031, 0.2042
20-Jan-2019 13:01:33.796, 0.0030,-0.0042,-0.9869,-0.0094,-0.0011, 0.0126,-0.0094,-0.0128,-0.0129, 0.0115, 0.0031, 0.2042
20-Jan-2019 13:01:33.806, 0.0035,-0.0048,-0.9868,-0.0085,-0.0010, 0.0130,-0.0094,-0.0138,-0.0118, 0.0115, 0.0031, 0.2042
20-Jan-2019 13:01:33.816, 0.0033,-0.0046,-0.9874,-0.0080,-0.0016, 0.0131,-0.0105,-0.0149,-0.0107, 0.0115, 0.0031, 0.2042
20-Jan-2019 13:01:33.825, 0.0025,-0.0040,-0.9868,-0.0082,-0.0014, 0.0125,-0.0105,-0.0160,-0.0129, 0.0115, 0.0031, 0.2042
20-Jan-2019 13:01:33.835, 0.0029,-0.0037,-0.9868,-0.0090,-0.0009, 0.0132,-0.0094,-0.0138,-0.0118, 0.0115, 0.0031, 0.2042
20-Jan-2019 13:01:33.845, 0.0025,-0.0046,-0.9869,-0.0086,-0.0005, 0.0131,-0.0094,-0.0159,-0.0129, 0.0115, 0.0031, 0.2042
20-Jan-2019 13:01:33.855, 0.0032,-0.0037,-0.9864,-0.0090,-0.0015, 0.0131,-0.0094,-0.0149,-0.0129, 0.0115, 0.0031, 0.2042
20-Jan-2019 13:01:33.866, 0.0033,-0.0043,-0.9865,-0.0083,-0.0006, 0.0136,-0.0094,-0.0138,-0.0118, 0.0115, 0.0031, 0.2042
20-Jan-2019 13:01:33.875, 0.0030,-0.0050,-0.9871,-0.0081,-0.0012, 0.0134,-0.0084,-0.0149,-0.0107, 0.0115, 0.0031, 0.2042
20-Jan-2019 13:01:33.885, 0.0033,-0.0044,-0.9868,-0.0085,-0.0019, 0.0128,-0.0083,-0.0149,-0.0129, 0.0114, 0.0031, 0.2042
20-Jan-2019 13:01:33.895, 0.0032,-0.0039,-0.9869,-0.0081,-0.0012, 0.0132,-0.0084,-0.0128,-0.0118, 0.0115, 0.0031, 0.2042
20-Jan-2019 13:01:33.905, 0.0033,-0.0035,-0.9879,-0.0082,-0.0007, 0.0130,-0.0094,-0.0138,-0.0129, 0.0115, 0.0031, 0.2042
20-Jan-2019 13:01:33.915, 0.0032,-0.0045,-0.9871,-0.0082,-0.0004, 0.0120,-0.0094,-0.0149,-0.0129, 0.0115, 0.0031, 0.2042
20-Jan-2019 13:01:33.925, 0.0020,-0.0045,-0.9870,-0.0083,-0.0013, 0.0128,-0.0094,-0.0138,-0.0139, 0.0115, 0.0031, 0.2041
20-Jan-2019 13:01:33.935, 0.0039,-0.0046,-0.9875,-0.0094,-0.0013, 0.0130,-0.0094,-0.0149,-0.0129, 0.0115, 0.0031, 0.2041
20-Jan-2019 13:01:33.945, 0.0033,-0.0053,-0.9870,-0.0075,-0.0015, 0.0124,-0.0084,-0.0128,-0.0118, 0.0115, 0.0032, 0.2041
20-Jan-2019 13:01:33.954, 0.0036,-0.0049,-0.9870,-0.0082,-0.0022, 0.0129,-0.0083,-0.0149,-0.0129, 0.0115, 0.0032, 0.2041
20-Jan-2019 13:01:33.965, 0.0034,-0.0049,-0.9866,-0.0078,-0.0018, 0.0130,-0.0094,-0.0149,-0.0118, 0.0114, 0.0032, 0.2041
20-Jan-2019 13:01:33.974, 0.0032,-0.0042,-0.9866,-0.0081,-0.0018, 0.0133,-0.0094,-0.0117,-0.0139, 0.0115, 0.0032, 0.2041
20-Jan-2019 13:01:33.985, 0.0031,-0.0039,-0.9871,-0.0083,-0.0010, 0.0134,-0.0105,-0.0128,-0.0107, 0.0115, 0.0032, 0.2042
20-Jan-2019 13:01:33.994, 0.0028,-0.0034,-0.9877,-0.0083,-0.0008, 0.0129,-0.0084,-0.0138,-0.0118, 0.0115, 0.0032, 0.2042
20-Jan-2019 13:01:34.004, 0.0030,-0.0040,-0.9870,-0.0086,-0.0002, 0.0123,-0.0094,-0.0160,-0.0107, 0.0114, 0.0032, 0.2042
20-Jan-2019 13:01:34.014, 0.0040,-0.0050,-0.9870,-0.0084,-0.0009, 0.0129,-0.0105,-0.0149,-0.0118, 0.0114, 0.0032, 0.2042
20-Jan-2019 13:01:34.024, 0.0028,-0.0052,-0.9874,-0.0074,-0.0018, 0.0130,-0.0084,-0.0149,-0.0107, 0.0114, 0.0032, 0.2042
20-Jan-2019 13:01:34.034, 0.0023,-0.0044,-0.9878,-0.0086,-0.0021, 0.0126,-0.0116,-0.0128,-0.0107, 0.0114, 0.0032, 0.2042
20-Jan-2019 13:01:34.044, 0.0023,-0.0036,-0.9869,-0.0091,-0.0013, 0.0121,-0.0084,-0.0138,-0.0107, 0.0114, 0.0032, 0.2042
20-Jan-2019 13:01:34.054, 0.0015,-0.0034,-0.9869,-0.0091,-0.0004, 0.0130,-0.0094,-0.0138,-0.0107, 0.0114, 0.0032, 0.2042
20-Jan-2019 13:01:34.063, 0.0022,-0.0030,-0.9859,-0.0099,-0.0002, 0.0130,-0.0083,-0.0149,-0.0129, 0.0114, 0.0032, 0.2042
20-Jan-2019 13:01:34.074, 0.0034,-0.0035,-0.9864,-0.0092, 0.0001, 0.0140,-0.0105,-0.0128,-0.0118, 0.0114, 0.0032, 0.2042
20-Jan-2019 13:01:34.084, 0.0030,-0.0052,-0.9863,-0.0080,-0.0004, 0.0135,-0.0105,-0.0149,-0.0118, 0.0114, 0.0032, 0.2042
