Timestamp,accelX(g),accelY(g),accelZ(g),accelUserX(g),accelUserY(g),accelUserZ(g),gyroX(rad/s),gyroY(rad/s),gyroZ(rad/s),Roll(rads),Pitch(rads),Yaw(rads),Lat,Long,Speed(m/s),TrueHeading,Alt(m), HorizontalAccuracy(m), VerticalAccuracy(m)
50:57.5,-0.0296,-0.0828,-0.9589,-0.0253,0.0214,0.0471,0.1024,0.0539,0.0461,0.0203,0.0959,2.8562,49.737092,-123.098369,3.1312,285.1794,140.841736,8,3
50:57.5,0.0343,-0.0634,-1.0119,-0.0004,0.0177,-0.0158,-0.299,0.2778,0.0234,0.0348,0.0811,2.8578,49.737092,-123.098369,3.1312,285.1794,140.841736,8,3
50:57.6,0.0502,-0.0635,-0.962,0.0085,0.0197,0.0336,0.0096,0.0541,0.0247,0.0419,0.0833,2.8612,49.737092,-123.098369,3.1312,285.1794,140.841736,8,3
50:57.7,0.0282,-0.0671,-0.9796,-0.014,0.0107,0.0165,-0.0481,0.0254,0.0236,0.0423,0.0779,2.8634,49.737092,-123.098369,3.1312,285.1794,140.841736,8,3
50:57.8,0.0454,-0.0711,-0.9716,0.0033,0.0038,0.0247,-0.0278,0.0265,0.0118,0.0423,0.0749,2.8641,49.737092,-123.098369,3.1312,285.1794,140.841736,8,3
50:57.9,0.0405,-0.0724,-0.984,-0.0023,0,0.0124,-0.0257,0.036,0.0322,0.0429,0.0725,2.8659,49.737092,-123.098369,3.1312,284.1617,140.841736,8,3
50:58.0,0.0414,-0.0888,-0.9642,0.0014,-0.0146,0.035,-0.0139,0.0106,0.0022,0.0432,0.0746,2.8658,49.737092,-123.098369,3.1312,284.1617,140.841736,8,3
50:58.1,0.0247,-0.07,-0.9819,-0.0149,-0.0077,0.0153,-0.1292,-0.0157,-0.0257,0.0396,0.0623,2.8639,49.737092,-123.098369,3.1312,284.1617,140.841736,8,3
50:58.2,0.044,-0.0626,-0.9765,0.0037,-0.0073,0.0211,-0.0513,0.0287,0.0108,0.0404,0.0553,2.8637,49.73709,-123.098378,1.5471,284.1617,140.841736,8,3
50:58.3,0.0419,-0.0522,-0.9787,-0.0003,0.0005,0.019,0.0128,0.0435,0.0151,0.0423,0.0528,2.8645,49.73709,-123.098378,1.5471,284.1617,140.841736,8,3
50:58.4,0.0409,-0.0678,-0.9794,-0.0008,-0.0152,0.0184,0.0075,0.0063,0.0107,0.0418,0.0526,2.8654,49.73709,-123.098378,1.5471,284.1617,140.841736,8,3
50:58.5,0.0446,-0.1018,-0.9944,0.0027,-0.0439,0.003,0.0555,0.0114,0.0395,0.042,0.0579,2.8682,49.73709,-123.098378,1.5471,284.1617,140.841736,8,3
50:58.6,0.0291,-0.1273,-0.9588,-0.0056,-0.0663,0.0387,0.0139,-0.0616,-0.0194,0.0348,0.061,2.867,49.73709,-123.098378,1.5471,284.1617,140.841736,8,3
50:58.7,0.0269,-0.1498,-0.957,-0.0032,-0.0926,0.0409,-0.0032,0.0203,-0.0063,0.0301,0.0572,2.8641,49.73709,-123.098378,1.5471,284.1617,140.841736,8,3
50:58.8,0.0227,-0.111,-0.9852,-0.0084,-0.0589,0.013,-0.0758,-0.0023,0.0267,0.0311,0.0521,2.8669,49.73709,-123.098378,1.5471,284.1617,140.841736,8,3
50:58.9,0.0317,-0.1216,-0.964,-0.003,-0.0697,0.034,0.0299,0.0712,0.0131,0.0348,0.0519,2.868,49.73709,-123.098378,1.5471,284.1617,140.841736,8,3
50:59.0,0.0333,-0.1006,-1.0084,-0.0041,-0.0563,-0.0079,-0.0502,0.0786,0.0344,0.0377,0.0467,2.87,49.73709,-123.098378,1.5471,283.1358,140.841736,8,3
50:59.1,0.0282,-0.1162,-0.9445,-0.0098,-0.0695,0.0537,0.0438,0.0234,0.0011,0.038,0.0468,2.8711,49.73709,-123.098378,1.5471,283.1358,140.841736,8,3
50:59.2,0.0359,-0.0826,-0.9938,0.0004,-0.0468,0.0049,-0.0875,-0.0009,-0.0139,0.0356,0.0358,2.8697,49.737083,-123.09838,0.3718,283.1358,140.841736,6,3
50:59.3,0.0329,-0.0848,-0.9915,-0.0048,-0.0481,0.0011,0.0054,0.0363,-0.0127,0.0351,0.0325,2.868,49.737083,-123.09838,0.3718,283.1358,140.841736,6,3
50:59.4,0.04,-0.0867,-0.9851,0.0036,-0.0534,0.0137,0.0043,0.0383,0.0076,0.0364,0.0333,2.8673,49.737083,-123.09838,0.3718,283.1358,140.841736,6,3
50:59.5,0.0257,-0.0967,-0.9775,-0.0097,-0.0631,0.0213,0.0117,0.0149,-0.0021,0.0354,0.0336,2.8665,49.737083,-123.09838,0.3718,283.1358,140.841736,6,3
50:59.6,0.0311,-0.0822,-0.9937,-0.0038,-0.0494,0.0052,0.0011,0.0128,-0.0074,0.0349,0.0328,2.866,49.737083,-123.09838,0.3718,283.1358,140.841736,6,3
50:59.7,0.0263,-0.0856,-0.9815,-0.007,-0.0488,0.022,0.0245,0.0296,0.0215,0.0366,0.0351,2.8675,49.737083,-123.09838,0.3718,283.1358,140.841736,6,3
50:59.8,0.0323,-0.0821,-0.9632,-0.0028,-0.0478,0.0356,-0.0085,-0.0062,-0.0321,0.0352,0.0343,2.8652,49.737083,-123.09838,0.3718,283.1358,140.841736,6,3
50:59.9,0.0339,-0.0776,-0.9783,-0.0008,-0.0457,0.0206,-0.0363,0.0245,-0.0053,0.0347,0.0319,2.8642,49.737083,-123.09838,0.3718,283.1358,140.841736,6,3
51:00.0,0.0264,-0.0924,-0.9743,-0.0085,-0.0576,0.0245,0.048,0.0181,-0.0031,0.0349,0.0348,2.8638,49.737083,-123.09838,0.3718,283.1358,140.841736,6,3
51:00.1,0.0323,-0.1344,-0.9783,-0.0001,-0.096,0.0204,0.0427,-0.017,-0.0022,0.0325,0.0384,2.8628,49.737083,-123.09838,0.3718,283.1358,140.841736,6,3
51:00.2,0.0281,-0.1931,-0.9408,0.0052,-0.1562,0.0583,-0.0319,-0.1078,-0.1157,0.0229,0.0368,2.8556,49.737081,-123.098382,0.3718,283.1358,140.841736,8,3
51:00.3,0.0163,-0.2442,-0.9755,-0.0133,-0.203,0.0232,0.0084,0.0938,0.1434,0.0297,0.0412,2.8654,49.737081,-123.098382,0.3718,283.1358,140.841736,8,3
51:00.4,0.0188,-0.3284,-1.0063,-0.0243,-0.3032,-0.0076,-0.2338,0.1266,0.0207,0.0432,0.0253,2.8697,49.737081,-123.098382,0.3718,283.1358,140.841736,8,3
51:00.5,0.062,-0.243,-1.003,-0.019,-0.2911,-0.0075,-0.7543,0.3117,0.4036,0.0812,-0.0481,2.8973,49.737081,-123.098382,0.3718,281.9012,140.841736,8,3
51:00.6,0.0323,-0.0854,-0.7889,-0.068,-0.2137,0.1978,-0.8025,0.3012,0.5456,0.1013,-0.1286,2.9421,49.737081,-123.098382,0.3718,278.7738,140.841736,8,3
51:00.7,0.0276,-0.0026,-1.0551,-0.0455,-0.1586,-0.07,-0.3345,-0.1919,-0.5772,0.074,-0.1567,2.9014,49.737081,-123.098382,0.3718,280.2751,140.841736,8,3
51:00.8,0.0268,-0.0138,-0.8767,-0.0001,-0.1583,0.0968,0.1351,-0.3909,-0.4498,0.0335,-0.1472,2.8603,49.737081,-123.098382,0.3718,282.7741,140.841736,8,3
51:00.9,0.0329,-0.0147,-1.0141,0.0105,-0.142,-0.0225,0.22,-0.1361,-0.0368,0.0226,-0.1276,2.8462,49.737081,-123.098382,0.3718,283.7769,140.841736,8,3
51:01.0,-0.1007,-0.1378,-1.1102,-0.1074,-0.2393,-0.1154,0.1849,-0.1672,-0.1629,0.0067,-0.1018,2.8302,49.737081,-123.098382,0.3718,283.7769,140.841736,8,3
51:01.1,-0.0116,-0.0673,-0.9919,-0.0337,-0.1544,0.0041,0.251,0.1858,-0.1179,0.0221,-0.0872,2.8177,49.737081,-123.098382,0.3718,284.8173,140.841736,8,3
51:01.2,-0.0505,-0.1239,-1.0163,-0.0765,-0.1952,-0.0192,0.1828,0.1586,-0.1788,0.0261,-0.0714,2.7977,49.737083,-123.098389,1.6428,285.8302,140.841736,8,3
51:01.3,-0.0181,-0.1547,-0.9605,-0.0488,-0.2161,0.0371,0.0602,0.1745,-0.3304,0.0308,-0.0614,2.7683,49.737083,-123.098389,1.6428,287.0825,140.841736,8,3
51:01.4,-0.0362,-0.153,-1.0476,-0.0785,-0.2044,-0.0498,0.0301,0.168,-0.1403,0.0424,-0.0514,2.7537,49.737083,-123.098389,1.6428,288.3527,140.841736,8,3
51:01.5,-0.0154,-0.1669,-1.0017,-0.0604,-0.2103,-0.0037,0.1113,0.1589,-0.2237,0.045,-0.0434,2.7298,49.737083,-123.098389,1.6428,289.5717,140.841736,8,3
51:01.6,-0.0081,-0.1344,-1.0085,-0.06,-0.1812,-0.011,-0.0306,0.1039,-0.2698,0.052,-0.0468,2.7052,49.737083,-123.098389,1.6428,290.8672,140.841736,8,3
51:01.7,-0.0336,-0.1155,-1.0192,-0.0864,-0.1655,-0.0218,-0.0296,0.0304,-0.2583,0.0529,-0.05,2.6783,49.737083,-123.098389,1.6428,293.1399,140.841736,8,3
51:01.8,-0.0069,-0.1395,-0.9618,-0.0678,-0.1807,0.0415,0.153,0.072,-0.2838,0.057,-0.041,2.6511,49.737083,-123.098389,1.6428,294.3275,140.841736,8,3
51:01.9,0.0102,-0.0834,-1.0139,-0.0428,-0.1247,-0.0161,-0.053,-0.0769,-0.2885,0.053,-0.0413,2.6216,49.737083,-123.098389,1.6428,295.5049,140.841736,8,3
51:02.0,-0.032,-0.138,-0.9666,-0.0782,-0.1599,0.0234,0.2524,-0.0662,-0.3141,0.0431,-0.0224,2.5912,49.737083,-123.098389,1.6428,298.1471,140.841736,8,3
51:02.1,-0.023,-0.133,-0.9385,-0.0619,-0.1422,0.0607,0.1327,-0.0188,-0.2264,0.0389,-0.0092,2.5662,49.737083,-123.098389,1.6428,299.2008,140.841736,8,3
51:02.2,-0.0321,-0.0995,-1.0053,-0.0562,-0.105,-0.0056,0.0312,-0.1615,-0.2141,0.0241,-0.0055,2.5442,49.737099,-123.09841,3.0447,300.4843,140.841736,8,3
51:02.3,-0.1113,-0.1074,-0.9834,-0.1233,-0.1005,0.0165,0.1988,-0.0575,-0.1806,0.012,0.0069,2.5249,49.737099,-123.09841,3.0447,301.563,140.841736,8,3
51:02.4,-0.103,-0.0727,-1.0922,-0.1252,-0.0668,-0.0925,-0.0672,0.2708,-0.0674,0.0221,0.0059,2.5135,49.737099,-123.09841,3.0447,302.6269,140.841736,8,3
51:02.5,-0.07,-0.169,-0.8256,-0.0766,-0.1393,0.1739,0.2802,-0.2562,-0.3906,0.0066,0.0297,2.4815,49.737099,-123.09841,3.0447,304.1681,140.841736,8,3
51:02.6,0.0029,-0.0476,-1.1878,-0.0007,-0.0497,-0.1878,-0.3926,0.0743,-0.2613,0.0036,-0.0022,2.4553,49.737099,-123.09841,3.0447,305.458,140.841736,8,3
51:02.7,-0.0629,-0.1259,-0.997,-0.0557,-0.102,0.0027,0.485,-0.0156,-0.2606,-0.0073,0.0239,2.4317,49.737099,-123.09841,3.0447,306.829,140.841736,8,3
51:02.8,-0.0614,-0.1031,-0.9875,-0.0495,-0.0784,0.0121,-0.0244,-0.0345,-0.0983,-0.0119,0.0247,2.4202,49.737099,-123.09841,3.0447,307.8362,140.841736,8,3
51:02.9,-0.0816,-0.0625,-0.9989,-0.068,-0.0395,0.0007,0.0547,0.0415,-0.1664,-0.0136,0.023,2.4058,49.737099,-123.09841,3.0447,307.8362,140.841736,8,3
51:03.0,0.0267,-0.1116,-1.0258,0.0327,-0.0894,-0.026,-0.0275,0.0246,-0.1846,-0.0061,0.0222,2.3876,49.737099,-123.09841,3.0447,309.052,140.841736,8,3
51:03.1,-0.0993,-0.13,-0.9146,-0.0768,-0.1049,0.0849,0.0084,-0.1985,0.0783,-0.0225,0.0251,2.3881,49.737099,-123.09841,3.0447,309.052,140.841736,8,3
51:03.2,-0.1003,-0.0556,-0.8599,-0.0604,-0.0173,0.1385,0.1346,-0.2783,-0.0864,-0.0399,0.0383,2.3829,49.737135,-123.098426,3.0447,309.052,140.841736,6,3
51:03.3,-0.0256,-0.0859,-1.0008,0.0134,-0.055,-0.0021,-0.0235,0.0212,0.0161,-0.0391,0.0309,2.3819,49.737135,-123.098426,3.0447,310.1091,140.841736,6,3
51:03.4,-0.023,-0.1311,-1.0117,0.0175,-0.0945,-0.0132,0.112,-0.0219,0.0789,-0.0405,0.0366,2.3892,49.737135,-123.098426,3.0447,310.1091,140.841736,6,3
51:03.5,-0.0129,-0.1173,-0.9478,0.032,-0.0677,0.05,0.2102,0.0044,0.1217,-0.0449,0.0496,2.4018,49.737135,-123.098426,3.0447,310.1091,140.841736,6,3
51:03.6,-0.0506,-0.069,-0.9621,-0.0002,-0.0154,0.0352,0.034,-0.0797,0.1481,-0.0504,0.0536,2.4169,49.737135,-123.098426,3.0447,308.8879,140.841736,6,3
51:03.7,-0.0208,-0.038,-1.0262,0.0367,-0.0006,-0.0285,-0.1859,-0.0611,0.0873,-0.0575,0.0373,2.426,49.737135,-123.098426,3.0447,307.8284,140.841736,6,3
51:03.8,0.0256,-0.0886,-1.0391,0.0771,-0.0476,-0.0413,0.0236,0.0706,-0.0627,-0.0516,0.041,2.4182,49.737135,-123.098426,3.0447,307.8284,140.841736,6,3
51:03.9,0.0374,-0.1076,-1.0126,0.0821,-0.0634,-0.0146,0.0448,0.0977,0.0228,-0.0447,0.0442,2.4165,49.737135,-123.098426,3.0447,307.8284,140.841736,6,3
51:04.0,-0.0253,-0.1356,-0.9257,0.0312,-0.0755,0.0709,0.1933,-0.1285,-0.057,-0.0567,0.0602,2.4144,49.737135,-123.098426,3.0447,307.8284,140.841736,6,3
51:04.1,0.0276,-0.1328,-0.9743,0.0904,-0.0441,0.0198,0.3213,-0.0145,0.0822,-0.0631,0.0888,2.4176,49.737135,-123.098426,3.0447,307.8284,140.841736,6,3
51:04.2,-0.0129,-0.2137,-1.0438,0.0869,-0.1398,-0.0515,-0.2104,-0.5995,0.0758,-0.1002,0.0739,2.4223,49.737173,-123.098448,4.1756,307.8284,140.841736,6,3
51:04.3,0.0912,-0.1277,-0.9132,0.1666,-0.0428,0.0803,0.3232,0.3364,0.2809,-0.0757,0.0851,2.4451,49.737173,-123.098448,4.1756,306.6593,140.841736,6,3
51:04.4,0.0593,-0.1222,-1.0019,0.1416,-0.0488,-0.008,-0.0503,-0.037,0.1227,-0.0826,0.0735,2.4581,49.737173,-123.098448,4.1756,306.6593,140.841736,6,3
51:04.5,0.0903,-0.1401,-0.9838,0.1726,-0.0584,0.0095,0.1172,0.0763,0.2031,-0.0827,0.0818,2.4763,49.737173,-123.098448,4.1756,305.565,140.841736,6,3
51:04.6,-0.0002,-0.1444,-0.9466,0.0947,-0.0627,0.0362,0.0701,-0.1221,0.2729,-0.0999,0.0846,2.4997,49.737173,-123.098448,4.1756,303.3949,140.841736,6,3
51:04.7,0.0364,-0.1284,-0.8944,0.146,-0.0389,0.0955,0.0605,-0.1243,0.2889,-0.1103,0.0897,2.5296,49.737173,-123.098448,4.1756,302.1049,140.841736,6,3
51:04.8,0.0371,-0.079,-1.0229,0.1552,-0.0016,-0.0329,-0.1402,-0.1015,0.2356,-0.1187,0.0775,2.5528,49.737173,-123.098448,4.1756,300.9801,140.841736,6,3
51:04.9,0.1211,-0.0983,-0.9423,0.2348,-0.0186,0.048,0.1128,0.1012,0.2972,-0.1143,0.0798,2.5817,49.737173,-123.098448,4.1756,298.6546,140.841736,6,3
51:05.0,0.0746,-0.0627,-0.9783,0.1954,0.0139,0.0114,0.0402,-0.0157,0.2861,-0.1215,0.0767,2.6093,49.737173,-123.098448,4.1756,297.4613,140.841736,6,3
51:05.1,0.0596,-0.0509,-0.9618,0.1948,0.0318,0.0256,0.0488,-0.0785,0.288,-0.1361,0.0828,2.6367,49.737173,-123.098448,4.1756,296.2348,140.841736,6,3
51:05.2,0.0977,-0.0913,-0.9826,0.2235,-0.0022,0.0055,0.0486,0.1601,0.4159,-0.1266,0.0892,2.6751,49.737209,-123.098481,4.3107,293.3839,140.841736,6,3
51:05.3,0.0264,-0.0751,-1.0413,0.1618,0.0322,-0.0379,0.2044,0.0886,0.4413,-0.1253,0.1029,2.7194,49.737209,-123.098481,4.3107,290.678,140.841736,6,3
51:05.4,0.0773,-0.1721,-0.9354,0.1974,-0.0532,0.0413,0.2002,0.0619,0.4422,-0.124,0.1111,2.7684,49.737209,-123.098481,4.3107,287.7998,140.841736,6,3
51:05.5,0.0874,-0.073,-0.9549,0.2189,0.0326,0.0308,-0.0722,-0.0598,0.5326,-0.1326,0.1058,2.8214,49.737209,-123.098481,4.3107,285.045,140.841736,6,3
51:05.6,0.0558,-0.1229,-1.0598,0.1578,-0.0284,-0.0695,-0.0071,0.4276,0.5268,-0.1026,0.0946,2.8732,49.737209,-123.098481,4.3107,281.899,140.841736,6,3
51:05.7,0.1254,-0.1188,-0.9224,0.2374,-0.0262,0.067,0.0114,-0.0487,0.2945,-0.1128,0.0928,2.9049,49.737209,-123.098481,4.3107,280.8242,140.841736,6,3
51:05.8,0.0768,-0.1062,-1.0103,0.1901,-0.0193,-0.0206,-0.0624,0.037,0.3738,-0.114,0.087,2.9422,49.737209,-123.098481,4.3107,278.4095,140.841736,6,3
51:05.9,0.1091,-0.1172,-0.9241,0.2189,-0.0218,0.0653,0.197,0.1089,0.4157,-0.1105,0.0955,2.9845,49.737209,-123.098481,4.3107,276.1591,140.841736,6,3
51:06.0,0.0891,-0.1538,-1.0088,0.1951,-0.0505,-0.0198,0.0839,0.1049,0.3943,-0.1068,0.1035,3.0248,49.737209,-123.098481,4.3107,273.7374,140.841736,6,3
51:06.1,0.114,-0.1748,-0.9761,0.2247,-0.065,0.0117,0.148,-0.0397,0.3618,-0.1116,0.11,3.0618,49.737209,-123.098481,4.3107,271.564,140.841736,6,3
51:06.2,0.1184,-0.1541,-0.9952,0.2246,-0.0408,-0.0073,0.0838,0.1196,0.4275,-0.1071,0.1136,3.103,49.737244,-123.098523,5.7783,269.3348,140.841736,6,3
51:06.3,0.1293,-0.1236,-0.9343,0.2336,-0.024,0.0582,-0.0144,-0.0091,0.426,-0.1133,0.11,-3.141,49.737244,-123.098523,5.7783,266.984,140.841736,6,3
51:06.4,0.1792,-0.1093,-0.9984,0.272,-0.0007,-0.0087,0.0614,0.2237,0.4556,-0.0935,0.1088,-3.0916,49.737244,-123.098523,5.7783,264.4022,140.841736,6,3
51:06.5,0.1803,-0.1437,-0.9798,0.263,-0.031,0.0103,0.0442,0.0436,0.4998,-0.0833,0.1129,-3.0411,49.737244,-123.098523,5.7783,261.5928,140.841736,6,3
51:06.6,0.2014,-0.1262,-0.9283,0.2836,-0.014,0.062,0.0026,0.0053,0.4954,-0.0828,0.1124,-2.9905,49.737244,-123.098523,5.7783,258.6751,140.841736,6,3
51:06.7,0.2593,-0.1259,-1.0789,0.331,-0.0282,-0.0863,-0.1629,0.2098,0.4844,-0.0721,0.0979,-2.9435,49.737244,-123.098523,5.7783,255.9324,140.841736,6,3
51:06.8,0.2694,-0.1329,-0.9429,0.3462,-0.027,0.0485,0.1266,-0.0835,0.3937,-0.0773,0.1061,-2.9034,49.737244,-123.098523,5.7783,253.6069,140.841736,6,3
51:06.9,0.2077,-0.1085,-0.9776,0.2875,0.003,0.0129,0.1018,0.1037,0.5737,-0.0803,0.1118,-2.8466,49.737244,-123.098523,5.7783,250.8287,140.841736,6,3
51:07.0,0.2048,-0.1489,-0.9951,0.2751,-0.0355,-0.0146,0.0014,-0.0166,0.5861,-0.0763,0.1119,-2.7917,49.737244,-123.098523,5.7783,247.5488,140.841736,6,3
51:07.1,0.2037,-0.1255,-1.0096,0.2827,-0.0154,-0.0188,0.09,0.0672,0.6302,-0.0796,0.1104,-2.7255,49.737244,-123.098523,5.7783,244.0323,140.841736,6,3
51:07.2,0.1727,-0.1335,-1.0048,0.2416,-0.0225,-0.0133,0.1297,0.2672,0.4686,-0.0694,0.1113,-2.6756,49.737269,-123.098588,5.7783,240.9125,141.337875,6,3
51:07.3,0.2306,-0.1183,-0.9301,0.2975,-0.0077,0.0615,0.0346,-0.0096,0.4943,-0.0674,0.1109,-2.6263,49.737269,-123.098588,5.7783,238.2168,141.337875,6,3
51:07.4,0.2427,-0.0858,-1.0531,0.2918,0.0179,-0.0597,-0.0807,0.2213,0.5015,-0.0494,0.1039,-2.5737,49.737269,-123.098588,5.7783,235.2516,141.337875,6,3
51:07.5,0.2774,-0.1261,-1.0317,0.3156,-0.0256,-0.0375,-0.0253,0.0953,0.5747,-0.0384,0.1006,-2.5185,49.737269,-123.098588,5.7783,232.3866,141.337875,6,3
51:07.6,0.2879,-0.0851,-0.9142,0.3249,0.0161,0.08,0.0281,-0.0143,0.5583,-0.0372,0.1014,-2.4629,49.737269,-123.098588,5.7783,229.2093,141.337875,6,3
51:07.7,0.2245,-0.0515,-0.959,0.2644,0.0517,0.0349,0.0355,0.0502,0.6237,-0.0401,0.1034,-2.4041,49.737269,-123.098588,5.7783,226.1816,141.337875,6,3
51:07.8,0.2825,-0.1249,-1.0419,0.3072,-0.0256,-0.0471,-0.0199,0.1678,0.5398,-0.0249,0.0994,-2.3485,49.737269,-123.098588,5.7783,222.8109,141.337875,6,3
51:07.9,0.2624,-0.1124,-1.0036,0.2812,-0.0046,-0.0096,0.1327,0.1132,0.5834,-0.0189,0.108,-2.2933,49.737269,-123.098588,5.7783,219.937,141.337875,6,3
51:08.0,0.2804,-0.1183,-0.9587,0.3057,-0.0138,0.0355,0.0101,-0.118,0.4694,-0.0254,0.1047,-2.2411,49.737269,-123.098588,5.7783,216.7796,141.337875,6,3
51:08.1,0.2953,-0.1267,-1.0709,0.311,-0.0236,-0.0763,-0.0007,0.2169,0.5293,-0.0158,0.1032,-2.1869,49.737269,-123.098588,5.7783,213.8996,141.337875,6,3
51:08.2,0.2618,-0.0875,-0.9559,0.2851,0.01,0.0391,0.0174,0.0484,0.5778,-0.0234,0.0976,-2.131,49.737267,-123.098814,5.7783,210.995,141.956619,11.1,3
51:08.3,0.2984,-0.0475,-0.9103,0.3229,0.0503,0.0846,0.0026,0.0744,0.5117,-0.0247,0.098,-2.0781,49.737267,-123.098814,5.7783,207.9823,141.956619,11.1,3
51:08.4,0.2616,-0.0835,-1.1273,0.2737,0.0009,-0.1309,-0.1427,0.2954,0.5744,-0.0121,0.0844,-2.0216,49.737267,-123.098814,5.7783,205.0391,141.956619,11.1,3
51:08.5,0.2887,-0.0388,-0.9337,0.3113,0.0461,0.0624,-0.0028,-0.1075,0.495,-0.0228,0.0851,-1.9716,49.737267,-123.098814,5.7783,202.2851,141.956619,11.1,3
51:08.6,0.2888,-0.028,-1.138,0.3103,0.0496,-0.1412,-0.0839,0.0668,0.5383,-0.0216,0.0777,-1.9147,49.737267,-123.098814,5.7783,199.2165,141.956619,11.1,3
51:08.7,0.3103,-0.0895,-0.9275,0.3258,0.011,0.0673,0.3463,0.2004,0.5847,-0.0156,0.1007,-1.8567,49.737267,-123.098814,5.7783,196.2445,141.956619,11.1,3
51:08.8,0.2129,-0.0571,-0.9879,0.2337,0.0524,0.0059,0.1369,0.0501,0.629,-0.0209,0.1097,-1.7929,49.737267,-123.098814,5.7783,192.8206,141.956619,11.1,3
51:08.9,0.3269,-0.1087,-1.1925,0.3357,-0.0126,-0.1971,-0.1426,0.2298,0.5122,-0.0089,0.0962,-1.7388,49.737267,-123.098814,5.7783,189.6474,141.956619,11.1,3
51:09.0,0.3974,-0.0793,-0.9503,0.4155,0.0077,0.0475,0.0582,0.1205,0.4553,-0.0084,0.0945,-1.6946,49.737267,-123.098814,5.7783,187.0598,141.956619,11.1,3
51:09.1,0.249,-0.0003,-0.8916,0.2676,0.1039,0.1028,0.1359,-0.1049,0.5762,-0.0187,0.1044,-1.6351,49.737267,-123.098814,5.7783,184.3247,141.956619,11.1,3
51:09.2,0.2716,-0.0347,-1.0227,0.2948,0.0767,-0.0292,0.0847,-0.0356,0.5529,-0.0234,0.1116,-1.5779,49.737267,-123.098815,6.1585,181.0747,142.078552,6,3
51:09.3,0.3288,-0.1149,-1.002,0.3414,0.003,-0.009,0.1008,0.2402,0.5379,-0.0127,0.1182,-1.5244,49.737267,-123.098815,6.1585,178.2377,142.078552,6,3
51:09.4,0.2647,-0.0665,-1.0385,0.294,0.0492,-0.0279,-0.0061,0.0609,0.6152,-0.0118,0.1259,-1.4685,49.737267,-123.098815,6.1585,175.2785,142.078552,6,3
51:09.5,0.3037,-0.1131,-1.0544,0.3097,0.0161,-0.0628,0.0527,0.1412,0.5375,-0.0061,0.1296,-1.4097,49.737267,-123.098815,6.1585,172.0911,142.078552,6,3
51:09.6,0.3425,-0.1147,-0.8896,0.3495,0.0232,0.1008,0.0528,0,0.4943,-0.007,0.1383,-1.3598,49.737267,-123.098815,6.1585,169.3973,142.078552,6,3
51:09.7,0.282,0.0024,-0.904,0.3135,0.1285,0.0972,-0.02,-0.0591,0.587,-0.0168,0.1382,-1.3068,49.737267,-123.098815,6.1585,166.6129,142.078552,6,3
51:09.8,0.3311,-0.1394,-1.0858,0.3455,-0.0214,-0.0929,-0.2474,0.0357,0.5841,-0.0145,0.1184,-1.251,49.737267,-123.098815,6.1585,163.8305,142.078552,6,3
51:09.9,0.3175,-0.0521,-0.9107,0.3263,0.0831,0.0801,0.1231,0.0622,0.581,-0.0089,0.1356,-1.1967,49.737267,-123.098815,6.1585,161.0532,142.078552,6,3
51:10.0,0.2628,-0.0761,-0.9776,0.2681,0.0634,0.0126,0.0687,0.1093,0.5396,-0.0054,0.14,-1.1414,49.737267,-123.098815,6.1585,157.9392,142.078552,6,3
51:10.1,0.3064,-0.0965,-1.0258,0.3031,0.0494,-0.0365,0.0474,0.1722,0.5195,0.0033,0.1464,-1.0907,49.737267,-123.098815,6.1585,155.2166,142.078552,6,3
51:10.2,0.3565,-0.1073,-0.9799,0.3506,0.0363,0.0098,-0.023,0.0672,0.4743,0.006,0.1441,-1.0431,49.737261,-123.098837,6.3978,152.6915,141.469971,6,3
51:10.3,0.3655,-0.0763,-0.933,0.3609,0.0629,0.0573,-0.0252,0.0402,0.5361,0.0046,0.1397,-0.9904,49.737261,-123.098837,6.3978,150.0332,141.469971,6,3
51:10.4,0.3148,-0.0614,-0.9556,0.3323,0.0814,0.046,0.0537,-0.0634,0.5774,-0.0015,0.1454,-0.9387,49.737261,-123.098837,6.3978,147.293,141.469971,6,3
51:10.5,0.2509,-0.1045,-1.0812,0.2689,0.0405,-0.0919,0.0623,-0.0388,0.5561,-0.0182,0.1455,-0.8805,49.737261,-123.098837,6.3978,144.2972,141.469971,6,3
51:10.6,0.2864,-0.1226,-0.9655,0.2885,0.039,0.0213,0.2139,0.3454,0.5447,-0.0021,0.1624,-0.827,49.737261,-123.098837,6.3978,141.451,141.469971,6,3
51:10.7,0.3452,-0.0747,-0.9208,0.3394,0.0824,0.0668,-0.1694,0.1221,0.5546,0.0059,0.1578,-0.7741,49.737261,-123.098837,6.3978,138.7149,141.469971,6,3
51:10.8,0.3814,-0.0568,-1.0019,0.3809,0.0976,-0.0139,-0.0657,0.0075,0.4858,0.0005,0.155,-0.7256,49.737261,-123.098837,6.3978,135.9662,141.469971,6,3
51:10.9,0.3597,-0.0967,-1.046,0.3833,0.0565,-0.0581,0.0369,-0.0844,0.3809,-0.0238,0.1538,-0.6862,49.737261,-123.098837,6.3978,133.3478,141.469971,6,3
51:11.0,0.353,-0.0599,-1.0187,0.3814,0.1006,-0.0321,0.0046,0.0113,0.552,-0.0287,0.1611,-0.6355,49.737261,-123.098837,6.3978,130.9347,141.469971,6,3
51:11.1,0.3156,-0.0499,-1.0306,0.3573,0.1205,-0.0461,0.1361,0.0426,0.4817,-0.0424,0.1713,-0.5863,49.737261,-123.098837,6.3978,128.2979,141.469971,6,3
51:11.2,0.2803,-0.0427,-1.0282,0.3315,0.1329,-0.045,0.0963,0.0265,0.6663,-0.052,0.1766,-0.5255,49.737114,-123.098912,5.0028,125.3118,140.904556,9.8,3
51:11.3,0.3024,-0.1285,-0.9402,0.3345,0.0684,0.0397,0.2233,0.3752,0.7092,-0.0327,0.1982,-0.4573,49.737114,-123.098912,5.0028,121.6759,140.904556,9.8,3
51:11.4,0.3818,-0.0273,-1.0142,0.4124,0.1677,-0.0339,-0.1256,0.0028,0.568,-0.0312,0.1963,-0.4006,49.737114,-123.098912,5.0028,118.5665,140.904556,9.8,3
51:11.5,0.2574,-0.0835,-1.0821,0.3282,0.1081,-0.1032,-0.0154,-0.4025,0.3701,-0.0721,0.1928,-0.3621,49.737114,-123.098912,5.0028,117.2819,140.904556,9.8,3
51:11.6,0.2514,-0.1477,-1.0139,0.3165,0.0571,-0.0373,0.2237,0.1546,0.434,-0.0665,0.2063,-0.3179,49.737114,-123.098912,5.0028,114.4637,140.904556,9.8,3
51:11.7,0.3083,-0.0654,-0.9539,0.3653,0.146,0.0246,-0.0041,0.3668,0.7124,-0.0403,0.2104,-0.2466,49.737114,-123.098912,5.0028,110.3553,140.904556,9.8,3
51:11.8,0.1439,-0.1467,-1.0893,0.1939,0.0543,-0.111,-0.1654,-0.1317,0.7971,-0.051,0.2024,-0.1602,49.737114,-123.098912,5.0028,105.7407,140.904556,9.8,3
51:11.9,0.4804,-0.1933,-0.9417,0.4753,0.039,0.0309,0.4538,0.7034,0.7926,0.0053,0.2344,-0.0732,49.737114,-123.098912,5.0028,100.4486,140.904556,9.8,3
51:12.0,0.3152,-0.1482,-1.0228,0.3328,0.0731,-0.0477,-0.1118,-0.1733,0.6389,-0.018,0.2231,-0.0099,49.737114,-123.098912,5.0028,96.865,140.904556,9.8,3
51:12.1,0.3758,-0.1228,-0.9705,0.3996,0.0934,0.0055,-0.0989,0.0017,0.5584,-0.0244,0.2179,0.0436,49.737114,-123.098912,5.0028,93.6702,140.904556,9.8,3
51:12.2,0.2607,-0.1578,-1.0234,0.2928,0.0534,-0.0465,-0.0231,0.1541,0.5237,-0.0328,0.2129,0.0939,49.73707,-123.098878,6.3622,90.7888,140.848022,11.9,3
51:12.3,0.3052,-0.1653,-0.8904,0.3197,0.0556,0.0848,0.1681,0.2723,0.4964,-0.0148,0.2228,0.1435,49.73707,-123.098878,6.3622,88.0194,140.848022,11.9,3
51:12.4,0.3489,-0.077,-1.0119,0.3706,0.1123,-0.0302,-0.3816,-0.2172,0.3793,-0.0221,0.1905,0.1887,49.73707,-123.098878,6.3622,85.1084,140.848022,11.9,3
51:12.5,0.3998,-0.0861,-0.9037,0.4276,0.0864,0.0809,-0.1564,0.1121,0.4488,-0.0282,0.1734,0.2281,49.73707,-123.098878,6.3622,83.7317,140.848022,11.9,3
51:12.6,0.2747,-0.1035,-0.898,0.3223,0.0781,0.0842,0.0581,-0.2342,0.4925,-0.0483,0.1826,0.2765,49.73707,-123.098878,6.3622,81.0907,140.848022,11.9,3
51:12.7,0.1542,-0.1574,-1.0008,0.2157,0.0338,-0.0211,0.0923,-0.2042,0.4701,-0.0627,0.1924,0.3305,49.73707,-123.098878,6.3622,77.9742,140.848022,11.9,3
51:12.8,0.298,-0.1287,-0.9371,0.3357,0.07,0.0422,0.1199,0.2695,0.6085,-0.0385,0.2001,0.3935,49.73707,-123.098878,6.3622,74.5957,140.848022,11.9,3
51:12.9,0.2673,-0.1277,-1.0106,0.2948,0.0642,-0.0295,-0.0018,0.2963,0.5872,-0.028,0.1931,0.4511,49.73707,-123.098878,6.3622,71.2466,140.848022,11.9,3
51:13.0,0.3372,-0.1245,-0.8961,0.354,0.0714,0.0844,0.1404,0.2612,0.4152,-0.017,0.1971,0.4958,49.73707,-123.098878,6.3622,68.3103,140.848022,11.9,3
51:13.1,0.2663,-0.0915,-1.0487,0.2971,0.0988,-0.0674,-0.0069,-0.2239,0.3857,-0.0314,0.1914,0.5374,49.73707,-123.098878,6.3622,65.8276,140.848022,11.9,3
51:13.2,0.3555,-0.1245,-0.8796,0.3704,0.0644,0.1022,0.1199,0.7496,0.5877,-0.0152,0.1901,0.5878,49.737092,-123.098644,6.1979,63.4282,140.842361,6,3
51:13.3,0.2763,-0.0713,-1.0179,0.3063,0.1125,-0.0354,-0.1885,-0.3001,0.5029,-0.0305,0.1848,0.6414,49.737092,-123.098644,6.1979,60.1602,140.842361,6,3
51:13.4,0.2626,-0.1251,-0.9963,0.3027,0.064,-0.0151,0.1959,0.1416,0.4649,-0.0408,0.1902,0.6904,49.737092,-123.098644,6.1979,57.2827,140.842361,6,3
51:13.5,0.323,-0.1278,-0.9645,0.3573,0.0643,0.0163,0.0655,0.254,0.5401,-0.035,0.1934,0.7424,49.737092,-123.098644,6.1979,54.4892,140.842361,6,3
51:13.6,0.2257,-0.107,-1.0182,0.2834,0.0924,-0.0272,0.0655,-0.1162,0.5238,-0.0447,0.1956,0.7945,49.737092,-123.098644,6.1979,51.3375,140.842361,6,3
51:13.7,0.2367,-0.1458,-0.9216,0.2732,0.0573,0.0569,0.1424,0.2743,0.5252,-0.0373,0.2045,0.8534,49.737092,-123.098644,6.1979,48.1632,140.842361,6,3
51:13.8,0.2757,-0.1493,-1.0046,0.3027,0.0592,-0.0269,0.0644,0.1123,0.5641,-0.0276,0.2101,0.9086,49.737092,-123.098644,6.1979,45.0002,140.842361,6,3
51:13.9,0.2665,-0.1714,-0.9794,0.2845,0.04,-0.0021,0.1061,0.3051,0.537,-0.0185,0.213,0.9631,49.737092,-123.098644,6.1979,41.8272,140.842361,6,3
51:14.0,0.2928,-0.182,-0.9817,0.3062,0.031,-0.0047,-0.0113,-0.0116,0.4751,-0.0138,0.2146,1.0118,49.737092,-123.098644,6.1979,38.828,140.842361,6,3
51:14.1,0.303,-0.1667,-0.9861,0.3134,0.0444,-0.0087,0.0176,0.2417,0.4685,-0.0107,0.2127,1.0569,49.737092,-123.098644,6.1979,36.1982,140.842361,6,3
51:14.2,0.2914,-0.1548,-0.9901,0.3124,0.0522,-0.0119,-0.0315,-0.0111,0.4046,-0.0215,0.2086,1.0981,49.737102,-123.098551,6.3622,33.7988,140.841797,6,3
51:14.3,0.2607,-0.168,-0.9835,0.2854,0.039,-0.0055,0.0442,0.0947,0.4925,-0.0253,0.2085,1.1468,49.737102,-123.098551,6.3622,31.2465,140.841797,6,3
51:14.4,0.2687,-0.1813,-0.9897,0.268,0.0339,-0.007,0.0442,0.1616,0.5131,-0.0193,0.2112,1.1964,49.737102,-123.098551,6.3622,28.2875,140.841797,6,3
51:14.5,0.2536,-0.1751,-0.9823,0.2615,0.0357,-0.0048,0.0367,0.2616,0.5262,-0.0081,0.2125,1.2511,49.737102,-123.098551,6.3622,25.2907,140.841797,6,3
51:14.6,0.3228,-0.1668,-0.9875,0.3233,0.0443,-0.01,0.0261,0.1373,0.4895,-0.0005,0.2127,1.3001,49.737102,-123.098551,6.3622,22.4103,140.841797,6,3
51:14.7,0.3388,-0.1678,-0.9532,0.3083,0.0445,0.0135,0.0485,0.2342,0.4781,0.0075,0.2155,1.3451,49.737102,-123.098551,6.3622,19.6708,140.841797,6,3
51:14.8,0.3501,-0.1538,-0.9126,0.3437,0.0591,0.0645,0.0176,0.0748,0.4369,0.0065,0.2145,1.3916,49.737102,-123.098551,6.3622,17.0735,140.841797,6,3
51:14.9,0.2245,-0.1975,-0.9996,0.238,0.018,-0.0232,0.1008,-0.2287,0.47,-0.0138,0.2172,1.4379,49.737102,-123.098551,6.3622,14.4567,140.841797,6,3
51:15.0,0.2188,-0.183,-0.9981,0.2285,0.041,-0.0236,-0.0017,-0.0161,0.5103,-0.0099,0.226,1.4893,49.737102,-123.098551,6.3622,11.6497,140.841797,6,3
51:15.1,0.2529,-0.1973,-1.0264,0.2584,0.0286,-0.0523,0.0677,0.1521,0.5034,-0.0056,0.2279,1.5404,49.737102,-123.098551,6.3622,8.6758,140.841797,6,3
51:15.2,0.2813,-0.168,-1.0818,0.2875,0.0569,-0.1075,-0.0615,-0.1279,0.5334,-0.0063,0.2268,1.5901,49.737132,-123.098473,6.1979,5.9021,140.841736,6,3
51:15.3,0.3701,-0.2029,-0.802,0.347,0.0346,0.1691,0.1948,0.6076,0.489,0.0239,0.2397,1.6411,49.737132,-123.098473,6.1979,2.9505,140.841736,6,3
51:15.4,0.2709,-0.1872,-1.1076,0.2856,0.0395,-0.1337,-0.1201,-0.4433,0.433,-0.0151,0.2287,1.6864,49.737132,-123.098473,6.1979,0.1802,140.841736,6,3
51:15.5,0.3458,-0.2027,-0.909,0.3531,0.0363,0.062,0.2119,0.4875,0.4576,-0.0076,0.2413,1.731,49.737132,-123.098473,6.1979,357.7596,140.841736,6,3
51:15.6,0.2366,-0.1913,-1.0923,0.2692,0.0499,-0.1223,-0.0081,-0.3599,0.5198,-0.0336,0.2436,1.7837,49.737132,-123.098473,6.1979,354.8645,140.841736,6,3
51:15.7,0.2687,-0.2144,-0.8634,0.2915,0.0408,0.1032,0.2364,0.4595,0.5045,-0.0235,0.258,1.8379,49.737132,-123.098473,6.1979,351.8159,140.841736,6,3
51:15.8,0.2119,-0.2091,-1.1115,0.2537,0.0407,-0.1441,-0.0722,-0.3303,0.5572,-0.0433,0.2525,1.8938,49.737132,-123.098473,6.1979,348.6238,140.841736,6,3
51:15.9,0.3976,-0.1843,-0.836,0.4249,0.0767,0.1289,0.1745,0.4472,0.4436,-0.0282,0.264,1.941,49.737132,-123.098473,6.1979,345.6523,140.841736,6,3
51:16.0,0.1828,-0.1947,-1.0648,0.2644,0.0535,-0.0995,-0.0849,-0.5105,0.4413,-0.0844,0.2509,1.9836,49.737132,-123.098473,6.1979,343.2127,140.841736,6,3
51:16.1,0.182,-0.2042,-0.9262,0.2595,0.063,0.0343,0.2203,0.208,0.5698,-0.0806,0.2705,2.0407,49.737132,-123.098473,6.1979,340.401,140.841736,6,3
51:16.2,0.1402,-0.2548,-0.9776,0.225,0.0114,-0.0174,0.0591,0.0698,0.548,-0.0881,0.2694,2.0985,49.737179,-123.09843,5.726,336.8957,140.841736,6,3
51:16.3,0.2357,-0.182,-1.0109,0.315,0.0764,-0.0481,-0.0241,0.1947,0.5004,-0.0822,0.2614,2.1492,49.737179,-123.09843,5.726,333.8982,140.841736,6,3
51:16.4,0.1647,-0.2324,-0.9715,0.23,0.0198,-0.0309,0.1551,0.3547,0.5906,-0.0758,0.2652,2.2056,49.737179,-123.09843,5.726,330.7509,140.841736,6,3
51:16.5,0.1532,-0.239,-0.8953,0.2263,0.0197,0.0679,-0.022,-0.0098,0.5306,-0.0757,0.2616,2.2626,49.737179,-123.09843,5.726,327.4456,140.841736,6,3
51:16.6,0.1461,-0.2023,-0.9895,0.2346,0.0482,-0.0255,-0.0326,-0.0371,0.4664,-0.0916,0.2532,2.3118,49.737179,-123.09843,5.726,324.471,140.841736,6,3
51:16.7,0.1623,-0.2355,-0.9821,0.2409,0.0201,-0.0149,0.0773,0.1306,0.53,-0.0957,0.2546,2.3618,49.737179,-123.09843,5.726,321.6329,140.841736,6,3
51:16.8,0.1536,-0.2395,-0.9128,0.2427,0.0063,0.0524,-0.021,0.1666,0.5707,-0.092,0.2483,2.4209,49.737179,-123.09843,5.726,318.4254,140.841736,6,3
51:16.9,0.1357,-0.2088,-1.0008,0.2381,0.0264,-0.0343,-0.0647,-0.0446,0.4803,-0.1056,0.2374,2.4705,49.737179,-123.09843,5.726,315.3361,140.841736,6,3
51:17.0,0.1447,-0.2418,-0.9229,0.2471,-0.007,0.0437,0.0902,0.2502,0.4728,-0.1056,0.2371,2.5179,49.737179,-123.09843,5.726,312.6783,140.841736,6,3
51:17.1,0.1423,-0.2395,-0.9633,0.2436,-0.012,0.0052,-0.0829,0.0836,0.579,-0.1043,0.2295,2.573,49.737179,-123.09843,5.726,309.6988,140.841736,6,3
51:17.2,0.1059,-0.2277,-0.963,0.2237,-0.0021,-0.0192,0.0485,0.0459,0.471,-0.1121,0.2259,2.6238,49.737165,-123.098577,5.726,306.4825,140.841736,6,3
51:17.3,0.16,-0.1881,-0.9368,0.2694,0.0318,0.0325,-0.008,0.0896,0.4594,-0.1124,0.2217,2.6673,49.737165,-123.098577,5.726,304.0059,140.841736,6,3
51:17.4,0.0919,-0.2566,-1.0144,0.2119,-0.029,-0.0481,0.2278,0.102,0.5075,-0.1236,0.2296,2.7205,49.737165,-123.098577,5.726,301.2008,140.841736,6,3
51:17.5,0.1534,-0.2616,-0.884,0.2542,-0.041,0.0671,0.072,0.2671,0.4931,-0.114,0.2319,2.7694,49.737165,-123.098577,5.726,298.0758,140.841736,6,3
51:17.6,0.1614,-0.1917,-0.9673,0.2818,0.0206,0.0024,-0.1201,-0.0134,0.442,-0.1236,0.214,2.815,49.737165,-123.098577,5.726,295.4537,140.841736,6,3
51:17.7,0.0164,-0.2343,-0.9854,0.1218,-0.0321,-0.0922,0.1064,-0.0064,0.3278,-0.1493,0.2125,2.8535,49.737165,-123.098577,5.726,293.0616,140.841736,6,3
51:17.8,0.1632,-0.1937,-0.9791,0.2925,0.0116,-0.009,-0.1447,-0.0094,0.4762,-0.1325,0.2068,2.9028,49.737165,-123.098577,5.726,290.4662,140.841736,6,3
51:17.9,0.0971,-0.1864,-0.881,0.226,0.023,0.0883,0.2279,0.2567,0.4387,-0.1321,0.2109,2.949,49.737165,-123.098577,5.726,287.8576,140.841736,6,3
51:18.0,0.109,-0.1874,-0.9329,0.2322,0.0175,0.0381,-0.0796,-0.0448,0.5091,-0.1262,0.2063,2.9978,49.737165,-123.098577,5.726,285.1967,140.841736,6,3
51:18.1,0.1212,-0.1982,-0.9957,0.2336,0.008,-0.0237,0.0987,0.1873,0.4811,-0.1151,0.2076,3.0478,49.737165,-123.098577,5.726,282.2993,140.841736,6,3
51:18.2,0.19,-0.2359,-0.9128,0.2802,-0.0299,0.0616,0.0196,0.2733,0.5231,-0.0923,0.2075,3.0974,49.737165,-123.098577,5.726,279.4454,140.841736,6,3
51:18.3,0.1021,-0.2222,-1.021,0.1967,-0.0262,-0.0449,-0.0486,0.0462,0.4336,-0.0966,0.1973,-3.1411,49.7372,-123.098592,5.6822,276.7099,140.944397,6,3
51:18.4,0.1784,-0.1894,-0.926,0.2654,0.0027,0.0515,-0.1073,0.0814,0.4274,-0.0887,0.1932,-3.0973,49.7372,-123.098592,5.6822,274.0915,140.944397,6,3
51:18.5,0.0873,-0.1643,-1.0053,0.1798,0.0215,-0.0271,0.0198,0.0348,0.3792,-0.0943,0.1868,-3.0574,49.7372,-123.098592,5.6822,271.6921,140.944397,6,3
51:18.6,0.1129,-0.1843,-1.0037,0.1994,0.0029,-0.0252,-0.0593,-0.0787,0.4813,-0.0881,0.1884,-3.0096,49.7372,-123.098592,5.6822,269.1674,140.944397,6,3
51:18.7,0.1956,-0.168,-0.8301,0.261,0.0238,0.1492,0.2151,0.4993,0.4491,-0.0666,0.193,-2.9629,49.7372,-123.098592,5.6822,266.406,140.944397,6,3
51:18.8,0.1027,-0.1582,-1.2473,0.2056,0.0144,-0.2677,-0.246,-0.6504,0.3682,-0.1047,0.1735,-2.9254,49.7372,-123.098592,5.6822,263.8868,140.944397,6,3
51:18.9,0.2549,-0.1628,-0.7671,0.331,0.0252,0.2121,0.3251,0.5577,0.4621,-0.0776,0.1891,-2.8808,49.7372,-123.098592,5.6822,261.0314,140.944397,6,3
51:19.0,0.0447,-0.1794,-1.1944,0.1662,-0.0084,-0.2166,-0.1266,-0.5492,0.5095,-0.1236,0.1719,-2.8321,49.7372,-123.098592,5.6822,258.1297,140.944397,6,3
51:19.1,0.2252,-0.1494,-0.8091,0.3205,0.0376,0.1686,0.2675,0.6222,0.3631,-0.0972,0.1882,-2.7947,49.7372,-123.098592,5.6822,256.0197,140.944397,6,3
51:19.2,0.1092,-0.151,-1.1258,0.2307,0.0211,-0.1482,-0.0935,-0.202,0.468,-0.1237,0.173,-2.7502,49.737242,-123.098619,5.3439,253.5344,141.790375,6,3
51:19.3,0.1726,-0.1484,-0.8537,0.2708,0.0367,0.1241,0.1873,0.4223,0.5054,-0.1001,0.1862,-2.699,49.737242,-123.098619,5.3439,250.7254,141.790375,6,3
51:19.4,0.1378,-0.1741,-1.0589,0.2458,0.0121,-0.0695,-0.0488,-0.0165,0.5744,-0.0987,0.1768,-2.646,49.737242,-123.098619,5.3439,247.5386,141.790375,6,3
51:19.5,0.2126,-0.1588,-1.0056,0.2942,0.0163,-0.0244,0.0058,0.2779,0.4729,-0.083,0.176,-2.5957,49.737242,-123.098619,5.3439,244.7226,141.790375,6,3
51:19.6,0.222,-0.1551,-1.0523,0.3085,0.016,-0.0708,0.0903,0.2368,0.398,-0.0879,0.1719,-2.5569,49.737242,-123.098619,5.3439,242.512,141.790375,6,3
51:19.7,0.1709,-0.1467,-0.958,0.2592,0.027,0.0228,0.1298,0.0601,0.4038,-0.0898,0.1746,-2.5151,49.737242,-123.098619,5.3439,240.1595,141.790375,6,3
51:19.8,0.212,-0.1093,-0.987,0.297,0.0643,-0.0058,0.039,0.0358,0.3856,-0.0864,0.1745,-2.4747,49.737242,-123.098619,5.3439,237.8815,141.790375,6,3
51:19.9,0.1571,-0.1314,-0.9714,0.2418,0.0463,0.0091,0.1393,0.3077,0.4527,-0.0862,0.1786,-2.4319,49.737242,-123.098619,5.3439,235.5867,141.790375,6,3
51:20.0,0.1957,-0.1348,-1.0887,0.285,0.0414,-0.1084,-0.0732,-0.2214,0.5021,-0.0909,0.1771,-2.3824,49.737242,-123.098619,5.3439,232.8062,141.790375,6,3
51:20.1,0.2765,-0.1127,-0.8881,0.3427,0.065,0.0937,0.104,0.5065,0.4908,-0.0674,0.1787,-2.3322,49.737242,-123.098619,5.3439,230.0243,141.790375,6,3
51:20.2,0.1074,-0.1427,-1.1118,0.2028,0.0264,-0.1308,-0.0049,-0.4248,0.5153,-0.0969,0.1699,-2.2825,49.737239,-123.098617,5.3439,227.2431,142.314346,6,3
51:20.3,0.2754,-0.1127,-0.9071,0.3448,0.0619,0.0751,0.1232,0.4614,0.5515,-0.0705,0.1755,-2.2305,49.737239,-123.098617,5.3439,224.4294,142.314346,6,3
51:20.4,0.2175,-0.1384,-1.0697,0.2892,0.0266,-0.086,-0.0189,0.024,0.5713,-0.0727,0.1657,-2.1739,49.737239,-123.098617,5.3439,221.301,142.314346,6,3
51:20.5,0.2858,-0.1342,-0.8475,0.335,0.0369,0.1365,0.1211,0.3829,0.5117,-0.05,0.1719,-2.1203,49.737239,-123.098617,5.3439,218.2894,142.314346,6,3
51:20.6,0.2646,-0.0666,-1.1172,0.3581,0.0949,-0.1347,-0.1468,-0.771,0.4233,-0.095,0.1622,-2.0756,49.737239,-123.098617,5.3439,215.6684,142.314346,6,3
51:20.7,0.2299,-0.1656,-0.9539,0.3252,0.0193,-0.0137,0.4233,0.2787,0.4868,-0.1046,0.1879,-2.0302,49.737239,-123.098617,5.3439,214.0611,142.314346,6,3
51:20.8,0.2449,-0.1573,-0.9496,0.3136,0.025,0.0442,0.0587,0.3468,0.8361,-0.0822,0.1894,-1.9521,49.737239,-123.098617,5.3439,209.155,142.314346,6,3
51:20.9,0.2136,-0.1756,-1.0789,0.2911,0.0088,-0.0991,0.011,0.1396,0.6294,-0.0789,0.1854,-1.8796,49.737239,-123.098617,5.3439,205.8376,142.314346,6,3
51:21.0,0.3029,-0.1477,-1.111,0.3778,0.0275,-0.1293,-0.0592,0.2468,0.3553,-0.0762,0.176,-1.8397,49.737239,-123.098617,5.3439,203.1911,142.314346,6,3
51:21.1,0.3251,-0.0631,-1.0274,0.3794,0.1142,-0.0448,0.0464,0.3216,0.4517,-0.0552,0.1782,-1.7939,49.737239,-123.098617,5.3439,200.381,142.314346,6,3
51:21.2,0.3215,-0.0925,-0.9497,0.3694,0.0989,0.0307,0.2545,0.4016,0.5748,-0.0489,0.1926,-1.7398,49.737239,-123.098617,5.3439,197.5218,142.314346,6,3
51:21.3,0.2081,-0.1441,-0.996,0.2624,0.0547,-0.0175,0.1188,-0.0991,0.6595,-0.0554,0.2002,-1.6735,49.737241,-123.098619,6.0862,194.0364,142.261673,6,3
51:21.4,0.307,-0.1746,-1.0066,0.3486,0.0239,-0.0274,0.0408,0.3564,0.6686,-0.0425,0.1998,-1.6066,49.737241,-123.098619,6.0862,190.3064,142.261673,6,3
51:21.5,0.2328,-0.1418,-1.0219,0.265,0.0555,-0.0421,-0.0232,0.0472,0.6002,-0.0328,0.1987,-1.5437,49.737241,-123.098619,6.0862,186.8772,142.261673,6,3
51:21.6,0.3158,-0.1531,-1.0158,0.3273,0.0313,-0.033,-0.0648,0.4036,0.6228,-0.0117,0.1855,-1.4823,49.737241,-123.098619,6.0862,183.5509,142.261673,6,3
51:21.7,0.4322,-0.0804,-0.8999,0.4105,0.0916,0.085,-0.1395,0.4921,0.6018,0.022,0.1729,-1.4241,49.737241,-123.098619,6.0862,180.3558,142.261673,6,3
51:21.8,0.3261,-0.1365,-1.0598,0.3226,0.0345,-0.0746,-0.006,-0.1725,0.5065,0.0035,0.1719,-1.3709,49.737241,-123.098619,6.0862,177.588,142.261673,6,3
51:21.9,0.3634,-0.1355,-0.8963,0.3456,0.0352,0.0889,0.0365,0.4702,0.6775,0.018,0.1715,-1.3067,49.737241,-123.098619,6.0862,174.1555,142.261673,6,3
51:22.0,0.3145,-0.1164,-1.0051,0.3004,0.0408,-0.0176,-0.1877,-0.1555,0.6924,0.0142,0.1579,-1.237,49.737241,-123.098619,6.0862,170.4071,142.261673,6,3
51:22.1,0.3623,-0.1043,-0.9139,0.3375,0.0602,0.0642,-0.0339,0.2959,0.6566,0.0333,0.1545,-1.1725,49.737241,-123.098619,6.0862,166.8116,142.261673,6,3
51:22.2,0.3822,-0.1261,-0.9991,0.3586,0.0256,-0.011,-0.0242,0.0091,0.568,0.0239,0.1523,-1.1174,49.737241,-123.098619,6.0862,163.8248,142.261673,6,3
51:22.3,0.4053,-0.1132,-0.9757,0.3839,0.0409,0.0122,0.0026,0.0318,0.5115,0.0217,0.1548,-1.0671,49.737242,-123.09862,6.0862,161.1395,141.719284,6,3
51:22.4,0.3967,-0.0975,-0.8891,0.3729,0.0605,0.098,0.0591,0.1548,0.5696,0.024,0.1588,-1.0109,49.737242,-123.09862,6.0862,158.1927,141.719284,6,3
51:22.5,0.2918,-0.1041,-1.0206,0.2974,0.0634,-0.0398,-0.0466,-0.3524,0.5155,-0.001,0.1613,-0.9601,49.737242,-123.09862,6.0862,155.3035,141.719284,6,3
51:22.6,0.3646,-0.1582,-0.9917,0.3532,0.0121,-0.0064,0.1071,0.3132,0.5926,0.0115,0.1711,-0.8986,49.737242,-123.09862,6.0862,152.2084,141.719284,6,3
51:22.7,0.3512,-0.1014,-0.9815,0.3413,0.0632,0.0048,-0.1139,0.021,0.5499,0.01,0.1653,-0.8419,49.737242,-123.09862,6.0862,149.2252,141.719284,6,3
51:22.8,0.3857,-0.0927,-0.9001,0.3732,0.0725,0.0803,0.0346,0.0241,0.5403,0.0116,0.1674,-0.7907,49.737242,-123.09862,6.0862,146.3135,141.719284,6,3
51:22.9,0.364,-0.0792,-1.0782,0.3825,0.0851,-0.092,-0.0411,-0.3709,0.4162,-0.0187,0.165,-0.7444,49.737242,-123.09862,6.0862,143.8991,141.719284,6,3
51:23.0,0.41,-0.1208,-1.0083,0.4415,0.0507,-0.0236,0.183,0.1817,0.5259,-0.032,0.1723,-0.6955,49.737242,-123.09862,6.0862,141.5281,141.719284,6,3
51:23.1,0.3085,-0.0771,-1.0502,0.36,0.1014,-0.0676,0.0484,-0.0663,0.5315,-0.0523,0.1794,-0.6402,49.737242,-123.09862,6.0862,138.5153,141.719284,6,3
51:23.2,0.3151,-0.0556,-1.0393,0.3742,0.128,-0.0581,0.0143,0.1383,0.497,-0.0602,0.1846,-0.5934,49.737242,-123.09862,6.0862,135.9143,141.719284,6,3
51:23.3,0.2593,-0.1497,-1.0747,0.3128,0.0483,-0.096,0.1614,0.2095,0.6712,-0.0546,0.1994,-0.527,49.737086,-123.098892,6.0862,132.4248,140.929489,11.5,3
51:23.4,0.4155,-0.1191,-0.8982,0.4316,0.0898,0.0796,0.1476,0.5256,0.6574,-0.0165,0.2105,-0.4546,49.737086,-123.098892,6.0862,129.016,140.929489,11.5,3
51:23.5,0.2965,-0.0862,-1.1323,0.3483,0.1187,-0.1549,0.04,-0.3434,0.4376,-0.053,0.2064,-0.4066,49.737086,-123.098892,6.0862,125.8308,140.929489,11.5,3
51:23.6,0.3839,-0.1418,-1.0486,0.4223,0.0731,-0.0727,0.1541,0.5346,0.587,-0.0393,0.2165,-0.3478,49.737086,-123.098892,6.0862,122.8689,140.929489,11.5,3
51:23.7,0.3591,-0.1189,-0.975,0.3918,0.0995,0.0003,0.043,0.1917,0.6295,-0.0335,0.2201,-0.2859,49.737086,-123.098892,6.0862,119.3644,140.929489,11.5,3
51:23.8,0.2709,-0.1379,-1.0833,0.3146,0.0843,-0.1093,0.0933,-0.2247,0.5149,-0.0448,0.2241,-0.2317,49.737086,-123.098892,6.0862,115.8771,140.929489,11.5,3
51:23.9,0.4518,-0.138,-0.9054,0.4676,0.0914,0.0678,0.1712,0.5612,0.5913,-0.0163,0.2315,-0.1712,49.737086,-123.098892,6.0862,112.8236,140.929489,11.5,3
51:24.0,0.3413,-0.1457,-1.0924,0.3734,0.078,-0.1183,-0.0211,0.032,0.6514,-0.0329,0.2255,-0.1082,49.737086,-123.098892,6.0862,109.1852,140.929489,11.5,3
51:24.1,0.4198,-0.1079,-0.9547,0.448,0.1208,0.0184,0.0121,0.1838,0.5324,-0.029,0.2308,-0.054,49.737086,-123.098892,6.0862,105.8603,140.929489,11.5,3
51:24.2,0.2815,-0.1134,-1.0315,0.3269,0.1147,-0.0589,0.011,0.057,0.565,-0.0467,0.2302,0.0007,49.737086,-123.098892,6.0862,102.8619,140.929489,11.5,3
51:24.3,0.3676,-0.1548,-0.9052,0.3951,0.0791,0.0667,-0.0072,0.379,0.6377,-0.0283,0.236,0.0625,49.737113,-123.098717,6.3337,99.4933,140.85051,4,3
51:24.4,0.3441,-0.1682,-1.0373,0.3794,0.0622,-0.0649,-0.0017,-0.1375,0.5291,-0.0363,0.2325,0.1189,49.737113,-123.098717,6.3337,96.0385,140.85051,4,3
51:24.5,0.4527,-0.141,-0.8976,0.4722,0.0901,0.0751,0.0463,0.4241,0.5674,-0.02,0.2332,0.1732,49.737113,-123.098717,6.3337,92.9499,140.85051,4,3
51:24.6,0.3104,-0.1539,-0.9271,0.3419,0.0724,0.0465,0.0078,-0.0153,0.5583,-0.0324,0.2282,0.2281,49.737113,-123.098717,6.3337,89.7831,140.85051,4,3
51:24.7,0.2736,-0.1903,-1.0138,0.3069,0.0658,-0.0377,0.0014,0.1078,0.6036,-0.0339,0.2281,0.283,49.737113,-123.098717,6.3337,86.633,140.85051,4,3
51:24.8,0.423,-0.1669,-0.9619,0.4341,0.0556,0.013,-0.0606,0.232,0.667,-0.0113,0.2244,0.352,49.737113,-123.098717,6.3337,82.9194,140.85051,4,3
51:24.9,0.4017,-0.124,-0.9793,0.4187,0.0923,-0.0032,0.0603,0.0852,0.4818,-0.0173,0.218,0.399,49.737113,-123.098717,6.3337,79.6856,140.85051,4,3
51:25.0,0.3541,-0.0894,-0.9642,0.3814,0.1229,0.0126,0.0038,-0.0357,0.4109,-0.0279,0.2139,0.4386,49.737113,-123.098717,6.3337,77.3812,140.85051,4,3
51:25.1,0.3412,-0.0971,-1.043,0.3849,0.1198,-0.0678,0.0955,-0.1509,0.4575,-0.0448,0.2187,0.4838,49.737113,-123.098717,6.3337,74.9198,140.85051,4,3
51:25.2,0.4222,-0.1232,-0.9194,0.4429,0.0859,0.0383,0.0506,0.4168,0.5417,-0.0374,0.22,0.5306,49.737113,-123.098717,6.3337,72.3238,140.85051,4,3
51:25.3,0.2637,-0.1663,-1.0299,0.3129,0.0506,-0.055,-0.0252,-0.1707,0.5535,-0.0504,0.2187,0.5903,49.737094,-123.098629,6.3337,69.101,140.842621,4,3
51:25.4,0.3074,-0.1414,-0.9759,0.346,0.0817,-0.0018,0.121,0.1848,0.5452,-0.0396,0.2249,0.647,49.737094,-123.098629,6.3337,65.8915,140.842621,4,3
51:25.5,0.358,-0.1397,-1.0167,0.3934,0.0827,-0.0424,0.0099,0.1941,0.5954,-0.0364,0.2242,0.7085,49.737094,-123.098629,6.3337,62.4556,140.842621,4,3
51:25.6,0.3292,-0.1556,-0.9678,0.3611,0.0691,0.0061,0.0622,0.3036,0.6043,-0.0328,0.2266,0.7683,49.737094,-123.098629,6.3337,59.0525,140.842621,4,3
51:25.7,0.3456,-0.1573,-0.95,0.384,0.0681,0.0419,0.107,0.2257,0.6425,-0.0255,0.2286,0.826,49.737094,-123.098629,6.3337,55.6461,140.842621,4,3
51:25.8,0.3062,-0.1825,-1.0155,0.3304,0.0532,-0.0305,0.0292,0.1624,0.5536,-0.0235,0.2285,0.8842,49.737094,-123.098629,6.3337,52.1515,140.842621,4,3
51:25.9,0.4205,-0.1586,-0.9293,0.4148,0.0597,0.0533,-0.0189,0.4461,0.6347,-0.0023,0.2263,0.9449,49.737094,-123.098629,6.3337,48.8465,140.842621,4,3
51:26.0,0.3403,-0.2185,-1.0017,0.3468,0.0036,-0.0267,-0.0178,0.0389,0.5703,-0.0067,0.224,1.0066,49.737094,-123.098629,6.3337,45.3317,140.842621,4,3
51:26.1,0.3676,-0.1712,-0.9869,0.3768,0.0493,-0.0115,-0.0337,-0.0309,0.4942,-0.0094,0.2223,1.0589,49.737094,-123.098629,6.3337,42.1802,140.842621,4,3
51:26.2,0.3966,-0.1835,-0.9306,0.4073,0.0384,0.0444,0.0462,0.1302,0.6005,-0.011,0.2237,1.1162,49.737094,-123.098629,6.3337,39.1642,140.842621,4,3
51:26.3,0.3192,-0.1918,-0.9602,0.3277,0.0289,0.0151,0.011,0.1566,0.6283,-0.0087,0.2226,1.1801,49.737096,-123.098531,6.4523,35.5319,140.841827,4,3
51:26.4,0.3456,-0.2305,-0.9586,0.3498,-0.0098,0.0167,0.0121,0.1869,0.5526,-0.0043,0.2226,1.2373,49.737096,-123.098531,6.4523,32.0922,140.841827,4,3
51:26.5,0.3787,-0.1709,-1.0001,0.3818,0.0476,-0.0242,0.0047,0.0903,0.516,-0.0032,0.2203,1.2881,49.737096,-123.098531,6.4523,29.0831,140.841827,4,3
51:26.6,0.4195,-0.142,-0.9586,0.4142,0.0777,0.017,-0.0092,0.2945,0.5359,0.0054,0.2215,1.3404,49.737096,-123.098531,6.4523,26.1328,140.841827,4,3
51:26.7,0.3854,-0.1682,-0.9599,0.3876,0.05,0.016,-0.0498,-0.0482,0.5508,-0.0022,0.22,1.3949,49.737096,-123.098531,6.4523,23.1115,140.841827,4,3
51:26.8,0.396,-0.2028,-0.9007,0.3961,0.0227,0.0735,0.1188,0.1715,0.6177,-0.0001,0.2275,1.453,49.737096,-123.098531,6.4523,19.88,140.841827,4,3
51:26.9,0.2761,-0.2662,-1.0114,0.2445,-0.047,-0.0772,-0.0446,-0.2967,0.6332,-0.0077,0.2299,1.515,49.737096,-123.098531,6.4523,16.2344,140.841827,4,3
51:27.0,0.3873,-0.1819,-0.9621,0.3776,0.0477,0.0111,0.0217,0.3348,0.5574,0.01,0.2316,1.5716,49.737096,-123.098531,6.4523,12.9779,140.841827,4,3
51:27.1,0.4107,-0.2337,-0.9609,0.386,0.0015,0.0108,0.09,0.5134,0.5783,0.0254,0.2374,1.628,49.737096,-123.098531,6.4523,9.7487,140.841827,4,3
51:27.2,0.4181,-0.1375,-0.9248,0.4024,0.0913,0.0485,-0.1147,-0.3693,0.3393,0.0162,0.2309,1.6718,49.737096,-123.098531,6.4523,6.8271,140.841827,4,3
51:27.3,0.3419,-0.1935,-1.045,0.3593,0.0377,-0.0723,0.0742,-0.2393,0.4689,-0.0178,0.2333,1.7149,49.737125,-123.09844,6.4523,4.6116,140.841751,4,3
51:27.4,0.3606,-0.2282,-0.9592,0.367,0.0169,0.0102,0.1561,0.2104,0.6915,-0.0065,0.2476,1.7821,49.737125,-123.09844,6.4523,1.2101,140.841751,4,3
51:27.5,0.3356,-0.1813,-0.9574,0.3389,0.0567,0.0138,-0.0605,0.2739,0.601,-0.0035,0.2403,1.8427,49.737125,-123.09844,6.4523,357.5651,140.841751,4,3
51:27.6,0.34,-0.2024,-1.0105,0.3623,0.0536,-0.0446,-0.0552,0.0314,0.5788,-0.0071,0.2397,1.8966,49.737125,-123.09844,6.4523,354.361,140.841751,4,3
51:27.7,0.4183,-0.1486,-0.8995,0.4226,0.0748,0.0993,-0.0701,0.2424,0.5379,0.0055,0.2355,1.9532,49.737125,-123.09844,6.4523,350.9023,140.841751,4,3
51:27.8,0.381,-0.1089,-0.9921,0.3921,0.0991,-0.0016,-0.1159,-0.1265,0.4779,-0.0185,0.2216,1.9995,49.737125,-123.09844,6.4523,348.1434,140.841751,4,3
51:27.9,0.2703,-0.1929,-0.9867,0.3012,0.0335,-0.0132,0.1306,0.0311,0.613,-0.0317,0.2283,2.0592,49.737125,-123.09844,6.4523,345.1964,140.841751,4,3
51:27.9,0.3225,-0.1412,-0.9729,0.357,0.0795,0.0018,-0.0509,0.087,0.5395,-0.0354,0.2225,2.1158,49.737125,-123.09844,6.4523,341.7561,140.841751,4,3
51:28.0,0.3312,-0.1507,-0.9539,0.3665,0.0655,0.0218,-0.0061,0.1547,0.5995,-0.0362,0.218,2.1752,49.737125,-123.09844,6.4523,338.5631,140.841751,4,3
51:28.1,0.2299,-0.1957,-0.9553,0.2798,0.0181,0.0203,0.0141,-0.1138,0.6498,-0.0511,0.2155,2.2426,49.737125,-123.09844,6.4523,333.7269,140.841751,4,3
51:28.2,0.2397,-0.155,-0.9435,0.2852,0.0542,0.0333,-0.051,0.1193,0.6378,-0.0466,0.2108,2.308,49.737048,-123.09867,5.4785,329.9122,140.841736,4,3
51:28.3,0.1939,-0.2366,-0.9599,0.2386,-0.0262,0.0167,0.0824,0.1551,0.6849,-0.0457,0.2119,2.3761,49.737048,-123.09867,5.4785,326.0869,140.841736,4,3
51:28.4,0.2812,-0.2099,-0.872,0.3096,-0.0162,0.1086,-0.1321,0.2493,0.6223,-0.029,0.1949,2.4382,49.737048,-123.09867,5.4785,323.2155,140.841736,4,3
51:28.5,0.2127,-0.1952,-1.045,0.2701,-0.014,-0.0633,-0.0688,-0.2526,0.3984,-0.0584,0.1822,2.4799,49.737048,-123.09867,5.4785,320.3485,140.841736,4,3
51:28.6,0.2796,-0.127,-0.8638,0.3134,0.0524,0.1194,0.0986,0.4261,0.5866,-0.0344,0.1804,2.535,49.737048,-123.09867,5.4785,317.7053,140.841736,4,3
51:28.7,0.2151,-0.1976,-0.992,0.2562,-0.0111,-0.0104,0.1306,-0.0296,0.6117,-0.0419,0.1876,2.5969,49.737048,-123.09867,5.4785,314.0872,140.841736,4,3
51:28.8,0.2832,-0.1968,-0.8892,0.3086,-0.0066,0.0922,0.1158,0.3938,0.4754,-0.0259,0.1914,2.6454,49.737048,-123.09867,5.4785,311.0464,140.841736,4,3
51:28.9,0.2697,-0.2027,-1.035,0.3133,-0.0156,-0.0537,-0.006,-0.2577,0.5201,-0.0443,0.1883,2.6947,49.737048,-123.09867,5.4785,308.2285,140.841736,4,3
51:29.0,0.2391,-0.2066,-0.9054,0.2844,-0.0161,0.0752,0.1105,0.1928,0.4502,-0.0462,0.1916,2.74,49.737048,-123.09867,5.4785,305.5144,140.841736,4,3
51:29.1,0.1713,-0.1899,-1.0381,0.2385,-0.0058,-0.0575,-0.0581,-0.3033,0.3342,-0.0685,0.1852,2.7768,49.737048,-123.09867,5.4785,303.0938,140.841736,4,3
51:29.2,0.2239,-0.1489,-0.9371,0.283,0.0369,0.0437,0.0891,0.2685,0.4334,-0.0602,0.187,2.818,49.737168,-123.098564,4.7993,300.8452,140.841736,10.5,3
51:29.3,0.2209,-0.1366,-0.9664,0.284,0.0388,0.0161,-0.0838,0.0177,0.3919,-0.0642,0.1763,2.8569,49.737168,-123.098564,4.7993,298.4642,140.841736,10.5,3
51:29.4,0.2256,-0.1173,-0.951,0.289,0.0573,0.0316,0.0742,-0.0861,0.4695,-0.0644,0.1755,2.9031,49.737168,-123.098564,4.7993,295.9204,140.841736,10.5,3
51:29.5,0.1871,-0.1752,-0.9419,0.2491,0.006,0.0396,0.1605,0.1759,0.5996,-0.0631,0.1821,2.9606,49.737168,-123.098564,4.7993,292.8315,140.841736,10.5,3
51:29.6,0.1675,-0.1762,-1.0642,0.2468,0.0032,-0.0533,-0.0691,0.0132,0.5883,-0.0633,0.1793,3.0148,49.737168,-123.098564,4.7993,289.3668,140.841736,10.5,3
51:29.7,0.2999,-0.1336,-0.9013,0.3367,0.0429,0.0823,0.043,0.4868,0.5836,-0.0374,0.1775,3.0732,49.737168,-123.098564,4.7993,286.1226,140.841736,10.5,3
51:29.8,0.1602,-0.1252,-1.0951,0.22,0.0423,-0.111,-0.0218,-0.2878,0.394,-0.0607,0.1683,3.1154,49.737168,-123.098564,4.7993,283.127,140.841736,10.5,3
51:29.9,0.2447,-0.1323,-0.9661,0.2873,0.0434,0.0174,0.198,0.3106,0.5082,-0.0433,0.1766,-3.1167,49.737168,-123.098564,4.7993,280.5168,140.841736,10.5,3
51:30.0,0.2283,-0.1485,-0.9159,0.2537,0.0309,0.0675,0.1029,0.4487,0.545,-0.0258,0.1804,-3.0631,49.737168,-123.098564,4.7993,277.4417,140.841736,10.5,3
51:30.1,0.214,-0.1428,-1.0984,0.247,0.0379,-0.1154,0.0015,-0.2575,0.4849,-0.0335,0.1817,-3.0127,49.737168,-123.098564,4.7993,274.2917,140.841736,10.5,3
51:30.2,0.3119,-0.145,-0.8335,0.3117,0.0401,0.1492,0.0974,0.7568,0.6294,0.0002,0.1862,-2.954,49.737164,-123.098577,4.7993,271.2638,140.841736,4,3
51:30.3,0.2094,-0.155,-1.1546,0.2693,0.0402,-0.1165,-0.0349,-0.3411,0.586,-0.0223,0.183,-2.8999,49.737164,-123.098577,4.7993,267.7295,140.841736,4,3
51:30.4,0.3513,-0.1235,-0.8921,0.3483,0.0723,0.0885,0.2204,0.6958,0.5107,0.003,0.197,-2.8491,49.737164,-123.098577,4.7993,264.8389,140.841736,4,3
51:30.5,0.2218,-0.1679,-1.0955,0.2354,0.0232,-0.114,-0.0156,-0.1066,0.5175,-0.0139,0.1923,-2.7987,49.737164,-123.098577,4.7993,261.9806,140.841736,4,3
51:30.6,0.2785,-0.1571,-0.8812,0.268,0.0484,0.0974,0.2171,0.5249,0.6019,0.0107,0.207,-2.7429,49.737164,-123.098577,4.7993,258.9427,140.841736,4,3
51:30.7,0.2347,-0.1828,-1.0017,0.2261,0.0218,-0.0229,-0.0359,0.0093,0.5413,0.0088,0.2061,-2.6867,49.737164,-123.098577,4.7993,255.6466,140.841736,4,3
51:30.8,0.2996,-0.1747,-0.9996,0.2895,0.0335,-0.0216,0.0635,0.0228,0.4175,0.0103,0.2097,-2.6385,49.737164,-123.098577,4.7993,252.5275,140.841736,4,3
51:30.9,0.261,-0.1606,-1.051,0.2626,0.0479,-0.073,-0.0336,-0.1847,0.4254,-0.0017,0.2101,-2.5939,49.737164,-123.098577,4.7993,249.9785,140.841736,4,3
51:31.0,0.3779,-0.1393,-0.8814,0.358,0.065,0.0973,-0.0605,0.5133,0.6018,0.0204,0.2058,-2.5386,49.737164,-123.098577,4.7993,247.3202,140.841736,4,3
51:31.1,0.2579,-0.1493,-1.0521,0.2531,0.0338,-0.069,-0.2292,-0.1643,0.5781,0.0049,0.1841,-2.4808,49.737164,-123.098577,4.7993,244.0324,140.841736,4,3
51:31.2,0.4117,-0.1149,-0.9668,0.3792,0.0604,0.0171,-0.0051,0.5778,0.6725,0.033,0.1763,-2.4157,49.737207,-123.098595,5.0545,240.5778,141.129868,4,3
51:31.3,0.2722,-0.1342,-1.0386,0.2479,0.0271,-0.052,-0.0916,0.1444,0.7094,0.0246,0.1621,-2.3537,49.737207,-123.098595,5.0545,236.9056,141.129868,4,3
51:31.4,0.3602,-0.0844,-1.0075,0.3193,0.0723,-0.0207,-0.083,0.2215,0.6425,0.0414,0.1573,-2.29,49.737207,-123.098595,5.0545,233.3775,141.129868,4,3
51:31.5,0.2979,-0.127,-0.9936,0.2591,0.0326,-0.0072,0.0932,0.1535,0.6059,0.0393,0.1603,-2.2278,49.737207,-123.098595,5.0545,229.81,141.129868,4,3
51:31.6,0.3511,-0.0816,-0.937,0.2886,0.0792,0.048,-0.0233,0.3134,0.7389,0.0634,0.1615,-2.1523,49.737207,-123.098595,5.0545,224.9602,141.129868,4,3
51:31.7,0.3959,-0.1035,-0.8823,0.3228,0.0534,0.1026,-0.0626,0.3273,0.5692,0.0741,0.1575,-2.0935,49.737207,-123.098595,5.0545,222.1034,141.129868,4,3
51:31.8,0.3381,-0.0361,-1.0747,0.3081,0.1076,-0.0855,-0.1797,-0.6858,0.2506,0.0303,0.1443,-2.0625,49.737207,-123.098595,5.0545,219.4082,141.129868,4,3
51:31.9,0.3332,-0.0737,-0.9109,0.2956,0.0829,0.076,0.2277,0.4192,0.6592,0.038,0.1573,-2.0048,49.737207,-123.098595,5.0545,216.6329,141.129868,4,3
51:32.0,0.3165,-0.0991,-0.9478,0.2674,0.0588,0.0385,-0.064,0.2438,0.8091,0.0497,0.1585,-1.9268,49.737207,-123.098595,5.0545,213.5066,141.129868,4,3
51:32.1,0.3376,-0.1018,-1.0155,0.2855,0.0652,-0.0309,0.105,-0.006,0.5925,0.0528,0.1677,-1.8635,49.737207,-123.098595,5.0545,209.3838,141.129868,4,3
51:32.2,0.3829,-0.1098,-0.9548,0.3288,0.064,0.0285,0.0036,0.0786,0.5192,0.0549,0.1747,-1.8107,49.737242,-123.098619,6.2219,206.3551,141.416901,6,3
51:32.3,0.4133,-0.0575,-0.9594,0.3756,0.1205,0.0239,0.0057,-0.1589,0.5472,0.0383,0.1789,-1.758,49.737242,-123.098619,6.2219,203.4469,141.416901,6,3
51:32.4,0.2933,-0.1105,-0.918,0.2616,0.0781,0.0635,0.1263,0.1484,0.5781,0.0323,0.1897,-1.7026,49.737242,-123.098619,6.2219,200.6733,141.416901,6,3
51:32.5,0.3163,-0.1643,-1.0151,0.2784,0.0312,-0.0351,0.0483,0.2532,0.6639,0.0386,0.1968,-1.6368,49.737242,-123.098619,6.2219,197.1949,141.416901,6,3
51:32.6,0.3448,-0.1321,-0.9616,0.2857,0.0623,0.0175,-0.0424,0.2378,0.5913,0.0603,0.1956,-1.5716,49.737242,-123.098619,6.2219,193.3652,141.416901,6,3
51:32.7,0.3844,-0.1374,-1.042,0.3199,0.0526,-0.0624,-0.0424,0.2813,0.6128,0.0658,0.1911,-1.5108,49.737242,-123.098619,6.2219,190.1197,141.416901,6,3
51:32.8,0.4768,-0.0948,-0.8656,0.3957,0.0877,0.1143,-0.146,0.3271,0.6087,0.0826,0.1835,-1.449,49.737242,-123.098619,6.2219,186.784,141.416901,6,3
51:32.9,0.4028,-0.0828,-1.0354,0.3489,0.0911,-0.0522,-0.1319,-0.3541,0.4547,0.0547,0.1748,-1.4008,49.737242,-123.098619,6.2219,183.7547,141.416901,6,3
51:33.0,0.4153,-0.1115,-0.9237,0.3535,0.0739,0.057,0.1669,0.354,0.5426,0.0629,0.1865,-1.3496,49.737242,-123.098619,6.2219,181.2796,141.416901,6,3
51:33.1,0.3446,-0.106,-1.0146,0.2884,0.0817,-0.034,-0.0809,-0.2098,0.6901,0.0573,0.1889,-1.2837,49.737242,-123.098619,6.2219,177.9989,141.416901,6,3
51:33.2,0.4165,-0.113,-0.8589,0.3336,0.0825,0.1182,0.0568,0.4544,0.6593,0.0847,0.1968,-1.2176,49.737241,-123.098619,6.2129,174.3098,141.358566,11.2,3
51:33.3,0.4587,-0.1058,-1.0145,0.3847,0.0847,-0.0356,-0.0882,-0.0811,0.5272,0.0755,0.1917,-1.1625,49.737241,-123.098619,6.2129,171.0416,141.358566,11.2,3
51:33.4,0.4961,-0.066,-0.9425,0.4311,0.1251,0.0414,-0.0445,0.0833,0.611,0.0721,0.1895,-1.1075,49.737241,-123.098619,6.2129,168.1279,141.358566,11.2,3
51:33.5,0.4656,-0.0878,-0.8813,0.4048,0.0946,0.0703,0.0067,0.0736,0.6238,0.0607,0.1929,-1.0455,49.737241,-123.098619,6.2129,164.8166,141.358566,11.2,3
51:33.6,0.3627,-0.1072,-0.962,0.3241,0.0917,0.0173,0.0281,-0.2389,0.5704,0.0394,0.2002,-0.9804,49.737241,-123.098619,6.2129,161.2623,141.358566,11.2,3
51:33.7,0.4007,-0.1207,-0.9841,0.3635,0.0802,-0.0052,-0.0476,0.2051,0.5378,0.038,0.2022,-0.9279,49.737241,-123.098619,6.2129,158.3991,141.358566,11.2,3
51:33.8,0.4048,-0.1178,-0.9767,0.3623,0.0795,0.0027,-0.0564,0.2638,0.6778,0.0434,0.1985,-0.8618,49.737241,-123.098619,6.2129,155.1201,141.358566,11.2,3
51:33.9,0.4263,-0.1326,-0.8866,0.3752,0.0666,0.092,-0.0168,0.1565,0.6476,0.0522,0.2006,-0.7953,49.737241,-123.098619,6.2129,151.2031,141.358566,11.2,3
51:34.0,0.466,-0.1139,-0.9984,0.4222,0.0832,-0.019,-0.0306,-0.0856,0.5698,0.0447,0.1984,-0.7392,49.737241,-123.098619,6.2129,147.7124,141.358566,11.2,3
51:34.1,0.4664,-0.1255,-0.9912,0.4327,0.0749,-0.012,0.0388,0.1506,0.5675,0.0345,0.2018,-0.6856,49.737241,-123.098619,6.2129,144.7442,141.358566,11.2,3
51:34.2,0.4493,-0.1137,-0.9877,0.4254,0.0882,-0.0086,0.0067,-0.054,0.6137,0.0244,0.2033,-0.6257,49.737185,-123.098923,6.2129,141.4132,140.893417,12.7,3
51:34.3,0.3609,-0.1136,-1.0091,0.3498,0.0934,-0.0308,0.0292,0.0039,0.552,0.0114,0.2085,-0.57,49.737185,-123.098923,6.2129,138.0975,140.893417,12.7,3
51:34.4,0.3996,-0.1439,-0.9852,0.3774,0.0709,-0.0088,0.0536,0.2701,0.6907,0.0228,0.2165,-0.5034,49.737185,-123.098923,6.2129,134.6764,140.893417,12.7,3
51:34.5,0.4828,-0.1711,-0.9293,0.4329,0.0501,0.0446,0.0545,0.6132,0.788,0.0512,0.223,-0.4265,49.737185,-123.098923,6.2129,129.3265,140.893417,12.7,3
51:34.6,0.4921,-0.1359,-0.957,0.4553,0.0772,0.0193,-0.1224,-0.1611,0.5642,0.0376,0.2148,-0.3667,49.737185,-123.098923,6.2129,126.498,140.893417,12.7,3
51:34.7,0.4716,-0.1762,-1.0453,0.4597,0.037,-0.0683,0.0548,-0.1378,0.5611,0.0122,0.2149,-0.312,49.737185,-123.098923,6.2129,123.4691,140.893417,12.7,3
51:34.8,0.4667,-0.1192,-0.9394,0.4559,0.0956,0.0372,0.0367,0.084,0.5021,0.011,0.2165,-0.2578,49.737185,-123.098923,6.2129,120.2193,140.893417,12.7,3
51:34.9,0.4383,-0.0927,-0.9971,0.4352,0.1231,-0.0207,0.0303,0.1869,0.5473,0.0032,0.2176,-0.2013,49.737185,-123.098923,6.2129,117.0564,140.893417,12.7,3
51:35.0,0.4811,-0.1513,-0.9438,0.4849,0.0729,0.0307,0.123,0.2076,0.6424,-0.0038,0.2261,-0.141,49.737185,-123.098923,6.2129,113.8195,140.893417,12.7,3
51:35.1,0.4497,-0.0858,-1.0429,0.4707,0.1352,-0.0679,-0.0434,-0.2407,0.5309,-0.0215,0.2229,-0.0882,49.737185,-123.098923,6.2129,110.5975,140.893417,12.7,3
51:35.2,0.4654,-0.1367,-0.9453,0.4837,0.0875,0.0291,0.0729,0.5163,0.6296,-0.0188,0.2261,-0.029,49.737069,-123.098877,6.2129,107.4705,140.846909,13,3
51:35.3,0.4038,-0.1314,-1.0038,0.4409,0.0867,-0.0286,-0.0712,-0.2456,0.6269,-0.038,0.2199,0.0361,49.737069,-123.098877,6.2129,103.948,140.846909,13,3
51:35.4,0.4506,-0.1463,-0.9092,0.4718,0.0796,0.0647,0.1379,0.4453,0.734,-0.0218,0.2279,0.1098,49.737069,-123.098877,6.2129,98.8541,140.846909,13,3
51:35.5,0.4712,-0.1643,-0.9844,0.4882,0.0544,-0.0087,-0.1374,0.1279,0.6315,-0.0174,0.2205,0.1739,49.737069,-123.098877,6.2129,95.8172,140.846909,13,3
51:35.6,0.4545,-0.1199,-0.9367,0.4788,0.084,0.042,-0.1415,0.0353,0.471,-0.0249,0.2053,0.2235,49.737069,-123.098877,6.2129,92.7224,140.846909,13,3
51:35.7,0.4473,-0.1263,-0.8864,0.479,0.0721,0.0932,0.0314,-0.046,0.5315,-0.0324,0.1997,0.2782,49.737069,-123.098877,6.2129,89.8356,140.846909,13,3
51:35.8,0.3204,-0.1737,-1.0024,0.3642,0.0289,-0.0241,0.0558,-0.1965,0.5972,-0.0447,0.2041,0.3399,49.737069,-123.098877,6.2129,86.4809,140.846909,13,3
51:35.9,0.4899,-0.1443,-0.8809,0.5,0.0528,0.0994,-0.1045,0.6297,0.7197,-0.0103,0.1985,0.4097,49.737069,-123.098877,6.2129,81.6506,140.846909,13,3
51:36.0,0.3436,-0.1185,-1.0106,0.3687,0.0652,-0.0279,-0.1683,0.005,0.5552,-0.0255,0.1847,0.4661,49.737069,-123.098877,6.2129,78.3064,140.846909,13,3
51:36.1,0.4031,-0.1427,-0.9398,0.425,0.042,0.0428,-0.0039,0.1697,0.5846,-0.0223,0.1857,0.5215,49.737069,-123.098877,6.2129,75.1147,140.846909,13,3
51:36.2,0.3793,-0.111,-0.9593,0.4022,0.071,0.0237,-0.0262,0.0032,0.4997,-0.0232,0.183,0.5763,49.73704,-123.098738,5.3751,71.9757,140.842255,6,3
51:36.3,0.4172,-0.1576,-0.8949,0.4239,0.0278,0.0877,0.1028,0.5995,0.6,-0.0068,0.1865,0.6321,49.73704,-123.098738,5.3751,68.8776,140.842255,6,3
51:36.4,0.3965,-0.1152,-0.9873,0.4073,0.0631,-0.0034,-0.0764,-0.1746,0.5151,-0.0109,0.1793,0.687,49.73704,-123.098738,5.3751,65.5894,140.842255,6,3
51:36.5,0.3738,-0.1371,-1.0191,0.3942,0.0443,-0.0359,0.0998,-0.0393,0.4782,-0.0208,0.1823,0.7357,49.73704,-123.098738,5.3751,62.8062,140.842255,6,3
51:36.6,0.4685,-0.1086,-0.9645,0.4829,0.0697,0.0194,-0.0412,0.1477,0.528,-0.0146,0.1792,0.7898,49.73704,-123.098738,5.3751,59.7669,140.842255,6,3
51:36.7,0.3681,-0.1282,-0.9566,0.3756,0.0498,0.0088,0.12,0.1988,0.5217,-0.0156,0.1823,0.841,49.73704,-123.098738,5.3751,56.694,140.842255,6,3
51:36.8,0.3783,-0.134,-0.9215,0.395,0.0587,0.0539,-0.0124,0.1892,0.5324,-0.0087,0.1841,0.8957,49.73704,-123.098738,5.3751,53.5966,140.842255,6,3
51:36.9,0.3836,-0.1348,-1.0025,0.3879,0.0514,-0.02,0.0601,0.2218,0.5837,-0.0044,0.1873,0.9539,49.73704,-123.098738,5.3751,50.4292,140.842255,6,3
51:37.0,0.4348,-0.1516,-0.9483,0.4038,0.0394,0.0394,0.1039,0.3771,0.5885,0.0119,0.1927,1.0115,49.73704,-123.098738,5.3751,48.8226,140.842255,6,3
51:37.1,0.397,-0.149,-0.9736,0.3864,0.0407,0.0082,-0.0124,0.1593,0.5493,0.0108,0.191,1.0669,49.73704,-123.098738,5.3751,43.988,140.842255,6,3
51:37.2,0.4424,-0.1488,-0.9495,0.4299,0.0425,0.0319,0.0239,0.1955,0.5356,0.0128,0.1925,1.1209,49.737048,-123.098665,5.8267,40.8868,140.841782,9.9,3
51:37.3,0.4236,-0.1495,-0.9341,0.4112,0.041,0.0475,0.0036,0.1721,0.5462,0.0126,0.1917,1.1762,49.737048,-123.098665,5.8267,37.7648,140.841782,9.9,3
51:37.4,0.3602,-0.1458,-0.9618,0.3456,0.0417,0.0203,-0.0391,0.0329,0.5137,0.0149,0.1885,1.2302,49.737048,-123.098665,5.8267,34.632,140.841782,9.9,3
51:37.5,0.3862,-0.1663,-0.8845,0.3483,0.0214,0.097,0.0036,0.472,0.5686,0.0386,0.1888,1.2859,49.737048,-123.098665,5.8267,31.4972,140.841782,9.9,3
51:37.6,0.3833,-0.1517,-1.0485,0.3456,0.0302,-0.0659,-0.1149,-0.0256,0.5145,0.0384,0.1829,1.3375,49.737048,-123.098665,5.8267,28.4505,140.841782,9.9,3
51:37.7,0.5546,-0.1438,-0.8661,0.4926,0.0422,0.1145,0.0526,0.4909,0.6071,0.0632,0.1871,1.3922,49.737048,-123.098665,5.8267,25.4628,140.841782,9.9,3
51:37.8,0.4173,-0.1756,-0.9541,0.374,0.0085,0.0279,-0.0038,-0.1821,0.5151,0.044,0.1851,1.4455,49.737048,-123.098665,5.8267,22.3109,140.841782,9.9,3
51:37.9,0.4202,-0.1813,-0.9617,0.3867,0.0096,0.0194,0.0463,-0.03,0.5177,0.0342,0.1921,1.4975,49.737048,-123.098665,5.8267,19.4128,140.841782,9.9,3
51:38.0,0.3848,-0.2152,-0.9771,0.3456,-0.0229,0.0034,-0.0167,0.4382,0.529,0.0399,0.1935,1.5527,49.737048,-123.098665,5.8267,16.331,140.841782,9.9,3
51:38.1,0.3458,-0.1867,-1.102,0.3093,0.001,-0.1204,-0.1406,-0.1738,0.5599,0.0371,0.1888,1.6076,49.737048,-123.098665,5.8267,13.0832,140.841782,9.9,3
51:38.2,0.5643,-0.135,-0.7432,0.4779,0.0628,0.2333,0.0665,0.7869,0.5868,0.0882,0.1991,1.664,49.737115,-123.098587,5.6181,9.9344,140.841736,10.1,3
51:38.3,0.3762,-0.2042,-1.0294,0.332,-0.0078,-0.0498,-0.0444,-0.5949,0.4965,0.0452,0.1977,1.7139,49.737115,-123.098587,5.6181,6.8636,140.841736,10.1,3
51:38.4,0.5176,-0.1799,-0.9057,0.4673,0.0217,0.0725,0.087,0.3302,0.4474,0.0513,0.203,1.7594,49.737115,-123.098587,5.6181,4.4735,140.841736,10.1,3
51:38.5,0.3701,-0.2329,-1.0288,0.3389,-0.0359,-0.0489,-0.0393,0.0316,0.7123,0.0318,0.1983,1.828,49.737115,-123.098587,5.6181,0.6803,140.841736,10.1,3
51:38.6,0.3908,-0.2137,-0.9811,0.3474,-0.0127,-0.0024,0.0066,0.3232,0.7101,0.0443,0.2023,1.898,49.737115,-123.098587,5.6181,356.6745,140.841736,10.1,3
51:38.7,0.4561,-0.2046,-0.8799,0.3913,-0.0086,0.0985,-0.0746,0.5103,0.7417,0.0662,0.1973,1.9677,49.737115,-123.098587,5.6181,352.7307,140.841736,10.1,3
51:38.8,0.4357,-0.1801,-0.9128,0.375,0.0101,0.067,-0.1064,-0.173,0.5866,0.0619,0.1914,2.0304,49.737115,-123.098587,5.6181,349.7715,140.841736,10.1,3
51:38.9,0.3748,-0.2129,-0.9411,0.3245,-0.0227,0.0394,0.026,0.0827,0.5331,0.0512,0.1914,2.0829,49.737115,-123.098587,5.6181,346.6382,140.841736,10.1,3
51:39.0,0.3611,-0.2222,-0.9414,0.3187,-0.0342,0.0399,-0.021,0.0771,0.5843,0.0432,0.189,2.1384,49.737115,-123.098587,5.6181,343.5751,140.841736,10.1,3
51:39.1,0.3589,-0.2058,-0.9375,0.3187,-0.0227,0.0448,-0.0616,0.1102,0.5684,0.0409,0.1841,2.1964,49.737115,-123.098587,5.6181,340.2489,140.841736,10.1,3
51:39.2,0.3514,-0.1701,-0.9108,0.3126,0.0096,0.0722,-0.0466,0.1526,0.5942,0.0394,0.1807,2.2553,49.737156,-123.098578,5.6181,336.8765,140.841736,12.4,3
51:39.3,0.3239,-0.1956,-0.8746,0.2927,-0.0105,0.0873,-0.0082,0.3355,0.6215,0.0414,0.1798,2.3137,49.737156,-123.098578,5.6181,333.3895,140.841736,12.4,3
51:39.4,0.2937,-0.1979,-0.9698,0.2628,-0.0278,0.0152,-0.1117,-0.2035,0.531,0.0314,0.1709,2.3715,49.737156,-123.098578,5.6181,330.0292,140.841736,12.4,3
51:39.5,0.3553,-0.156,-0.8595,0.3138,0.0018,0.1131,-0.0552,0.2272,0.5838,0.0421,0.1689,2.4261,49.737156,-123.098578,5.6181,326.8304,140.841736,12.4,3
51:39.6,0.2997,-0.1483,-0.9994,0.2769,0.0138,-0.0129,-0.0668,-0.2202,0.4882,0.0231,0.1628,2.4788,49.737156,-123.098578,5.6181,323.6853,140.841736,12.4,3
51:39.7,0.2856,-0.1701,-0.9111,0.2606,-0.0015,0.0742,0.0687,0.2294,0.5624,0.0254,0.1693,2.5318,49.737156,-123.098578,5.6181,320.9233,140.841736,12.4,3
51:39.8,0.3167,-0.1507,-0.918,0.2794,0.0157,0.0673,-0.0767,0.151,0.6796,0.0378,0.1672,2.5984,49.737156,-123.098578,5.6181,317.4102,140.841736,12.4,3
51:39.9,0.2393,-0.2229,-0.9588,0.2053,-0.0498,0.0255,0.1059,0.0922,0.7007,0.0346,0.1739,2.6685,49.737156,-123.098578,5.6181,313.3047,140.841736,12.4,3
51:40.0,0.3151,-0.2348,-0.9051,0.2745,-0.0595,0.0734,0.0078,0.109,0.5897,0.0379,0.1779,2.7272,49.737156,-123.098578,5.6181,309.6587,140.841736,12.4,3
51:40.1,0.2892,-0.2307,-0.9814,0.2629,-0.0571,0.003,-0.0732,-0.1401,0.4447,0.0268,0.1745,2.7743,49.737156,-123.098578,5.6181,306.6135,140.841736,12.4,3
51:40.2,0.2353,-0.2077,-0.8931,0.1961,-0.0247,0.0893,0.0751,0.3465,0.5521,0.0399,0.184,2.8256,49.737211,-123.098597,4.9747,303.918,140.841736,13.3,3
51:40.3,0.2931,-0.2349,-0.9556,0.2188,-0.0465,0.0407,-0.0391,0.2573,0.5379,0.0515,0.1847,2.8767,49.737211,-123.098597,4.9747,300.8477,140.841736,13.3,3
51:40.4,0.2781,-0.2385,-0.9547,0.2265,-0.0534,0.0266,-0.0743,0.0776,0.5074,0.0525,0.1862,2.9299,49.737211,-123.098597,4.9747,297.7739,140.841736,13.3,3
51:40.5,0.4094,-0.192,-0.8946,0.3579,-0.0145,0.0881,-0.1223,0.1298,0.5108,0.0524,0.1785,2.9787,49.737211,-123.098597,4.9747,294.9361,140.841736,13.3,3
51:40.6,0.2375,-0.2208,-0.9199,0.1995,-0.045,0.0638,-0.0028,0.0265,0.504,0.0386,0.1768,3.0265,49.737211,-123.098597,4.9747,292.2262,140.841736,13.3,3
51:40.7,0.267,-0.2243,-0.9822,0.2509,-0.0613,0.0524,-0.1352,-0.0161,0.5178,0.0368,0.1749,3.0756,49.737211,-123.098597,4.9747,289.1748,140.841736,13.3,3
51:40.8,0.2811,-0.2214,-0.9722,0.2341,-0.0495,0.0118,-0.0166,0.215,0.4833,0.0478,0.1728,3.1288,49.737211,-123.098597,4.9747,286.1177,140.841736,13.3,3
51:40.9,0.3287,-0.1675,-0.9505,0.2868,-0.0034,0.0351,-0.2023,-0.2444,0.4465,0.0425,0.1649,-3.1066,49.737211,-123.098597,4.9747,283.1507,140.841736,13.3,3
51:41.0,0.3259,-0.1417,-0.92,0.2856,0.0236,0.0654,0.0518,0.2079,0.4299,0.041,0.166,-3.0653,49.737211,-123.098597,4.9747,280.7546,140.841736,13.3,3
51:41.1,0.2406,-0.1967,-0.9972,0.2009,-0.023,-0.0132,0.0164,-0.0101,0.5712,0.0404,0.1746,-3.0113,49.737211,-123.098597,4.9747,277.902,140.841736,13.3,3
51:41.2,0.3536,-0.1658,-0.9618,0.3043,0.0118,0.021,0.01,0.1562,0.5291,0.0502,0.1786,-2.9574,49.737244,-123.098623,5.4962,274.6639,140.841736,10.9,3
51:41.3,0.319,-0.19,-0.9031,0.2309,-0.0196,0.0546,0.0376,0.5886,0.6395,0.0619,0.1812,-2.9008,49.737244,-123.098623,5.4962,271.4714,140.841736,10.9,3
51:41.4,0.2622,-0.2006,-1.0231,0.2045,-0.0219,-0.0409,-0.1087,-0.1905,0.6592,0.0587,0.1796,-2.8308,49.737244,-123.098623,5.4962,267.6339,140.841736,10.9,3
51:41.5,0.3588,-0.1947,-0.8779,0.2826,-0.0097,0.1019,0.0901,0.5118,0.4993,0.0776,0.1861,-2.7765,49.737244,-123.098623,5.4962,264.1124,140.841736,10.9,3
51:41.6,0.3299,-0.1891,-1.036,0.2707,-0.0025,-0.027,-0.101,-0.0652,0.5379,0.0677,0.179,-2.725,49.737244,-123.098623,5.4962,261.0517,140.841736,10.9,3
51:41.7,0.3293,-0.1935,-0.9021,0.2548,-0.0091,0.078,0.0751,0.2498,0.5315,0.0759,0.1855,-2.6694,49.737244,-123.098623,5.4962,257.9724,140.841736,10.9,3
51:41.8,0.3697,-0.1777,-0.972,0.2994,0.0068,0.0084,-0.0434,-0.0035,0.5498,0.0715,0.1856,-2.6169,49.737244,-123.098623,5.4962,254.9377,140.841736,10.9,3
51:41.9,0.3817,-0.2059,-0.9554,0.3159,-0.0152,0.0241,0.025,0.0404,0.4998,0.0672,0.1919,-2.5668,49.737244,-123.098623,5.4962,251.9884,140.841736,10.9,3
51:42.0,0.3893,-0.1596,-1.0063,0.3371,0.0353,-0.0268,-0.0006,-0.1724,0.4841,0.0533,0.1961,-2.5174,49.737244,-123.098623,5.4962,249.1982,140.841736,10.9,3
51:42.1,0.4259,-0.164,-0.8749,0.3626,0.0397,0.1021,0.089,0.4974,0.5826,0.0647,0.2052,-2.4592,49.737244,-123.098623,5.4962,246.1053,140.841736,10.9,3
51:42.2,0.3115,-0.2022,-1.0273,0.262,-0.0024,-0.0488,-0.083,-0.1053,0.6466,0.0505,0.2012,-2.3967,49.737274,-123.098741,6.1733,242.6365,140.841736,13.3,3
51:42.3,0.4727,-0.1586,-0.9202,0.3976,0.0466,0.0556,0.0376,0.2725,0.649,0.0768,0.2067,-2.3338,49.737274,-123.098741,6.1733,239.1291,140.841736,13.3,3
51:42.4,0.3736,-0.1619,-0.9881,0.2969,0.0403,-0.0118,-0.0627,0.2176,0.5912,0.0784,0.2036,-2.2716,49.737274,-123.098741,6.1733,235.4409,140.841736,13.3,3
51:42.5,0.3938,-0.1507,-0.9609,0.3218,0.0471,0.0167,-0.1161,-0.0455,0.6276,0.0734,0.1991,-2.2091,49.737274,-123.098741,6.1733,232.0452,140.841736,13.3,3
51:42.6,0.4468,-0.1719,-0.922,0.3558,0.034,0.0636,0.0034,0.2669,0.6843,0.0778,0.2046,-2.1445,49.737274,-123.098741,6.1733,228.364,140.841736,13.3,3
51:42.7,0.4324,-0.1972,-1.002,0.3217,0.0108,-0.0142,0.0077,0.0955,0.6986,0.0878,0.2107,-2.0743,49.737274,-123.098741,6.1733,224.3816,140.841736,13.3,3
51:42.8,0.5529,-0.0843,-0.8802,0.4571,0.1223,0.0935,-0.0829,0.3924,0.5491,0.0981,0.2081,-2.0164,49.737274,-123.098741,6.1733,220.8983,140.841736,13.3,3
51:42.9,0.3919,-0.1281,-1.1227,0.3462,0.0799,-0.1456,0.0464,-0.3533,0.4824,0.0468,0.2096,-1.9659,49.737274,-123.098741,6.1733,218.247,140.841736,13.3,3
51:43.0,0.3804,-0.1973,-0.9202,0.3421,0.037,0.0603,0.1048,0.2954,0.7142,0.0612,0.223,-1.8942,49.737274,-123.098741,6.1733,213.7148,140.841736,13.3,3
51:43.1,0.3908,-0.1978,-0.9783,0.3272,0.0325,-0.0296,0.0482,0.2283,0.729,0.0705,0.2267,-1.8172,49.737274,-123.098741,6.1733,209.3249,140.841736,13.3,3
51:43.2,0.5391,-0.1811,-1.0495,0.4646,0.042,-0.0775,-0.0808,0.3805,0.5683,0.0765,0.2249,-1.7572,49.737249,-123.098869,6.1733,205.8268,141.238144,14.5,3
51:43.3,0.495,-0.1125,-0.8999,0.4251,0.1017,0.0743,-0.1394,0.0362,0.4998,0.0716,0.2159,-1.7027,49.737249,-123.098869,6.1733,202.9009,141.238144,14.5,3
51:43.4,0.4109,-0.1678,-0.9236,0.3579,0.0554,0.0498,0.137,0.0421,0.5575,0.0544,0.225,-1.6452,49.737249,-123.098869,6.1733,199.757,141.238144,14.5,3
51:43.5,0.3884,-0.197,-0.9698,0.3324,0.0313,0.0022,0.0333,0.0638,0.6569,0.0576,0.2304,-1.5813,49.737249,-123.098869,6.1733,196.2884,141.238144,14.5,3
51:43.6,0.4547,-0.1496,-0.9612,0.4063,0.0755,0.0242,-0.0446,0.3596,0.6728,0.0804,0.2328,-1.5183,49.737249,-123.098869,6.1733,192.6496,141.238144,14.5,3
51:43.7,0.4576,-0.1725,-1.0072,0.3741,0.0581,-0.0377,-0.0584,0.3103,0.568,0.0859,0.2328,-1.4541,49.737249,-123.098869,6.1733,189.2788,141.238144,14.5,3
51:43.8,0.5484,-0.139,-0.8559,0.4461,0.0887,0.1125,-0.1097,0.3451,0.6173,0.1053,0.2297,-1.3892,49.737249,-123.098869,6.1733,185.8145,141.238144,14.5,3
51:43.9,0.4636,-0.1819,-0.9866,0.3779,0.0488,-0.0173,0.0346,-0.2086,0.484,0.0882,0.2329,-1.3356,49.737249,-123.098869,6.1733,182.7918,141.238144,14.5,3
51:44.0,0.5681,-0.1262,-0.7721,0.4425,0.1022,0.1813,-0.0498,0.4891,0.5601,0.109,0.2387,-1.2828,49.737249,-123.098869,6.1733,179.8472,141.238144,14.5,3
51:44.1,0.4247,-0.1461,-1.0034,0.3527,0.0766,-0.0311,-0.2495,-0.4176,0.5804,0.0739,0.2245,-1.2193,49.737249,-123.098869,6.1733,176.6424,141.238144,14.5,3
51:44.2,0.5296,-0.1275,-0.8775,0.4408,0.1032,0.0915,-0.0168,0.2674,0.6213,0.0913,0.2328,-1.1549,49.737195,-123.098919,6.8059,173.1236,141.007523,12.9,3
51:44.3,0.5411,-0.1524,-0.9484,0.4665,0.074,0.0228,-0.0284,0.0414,0.5073,0.0766,0.2283,-1.0987,49.737195,-123.098919,6.8059,170.0312,141.007523,12.9,3
51:44.4,0.5422,-0.1247,-0.9414,0.481,0.0997,0.0312,-0.068,-0.0635,0.6105,0.0628,0.2264,-1.0387,49.737195,-123.098919,6.8059,166.9041,141.007523,12.9,3
51:44.5,0.5076,-0.1152,-0.8974,0.4588,0.1173,0.0739,0.091,0.1031,0.6709,0.0501,0.2347,-0.9709,49.737195,-123.098919,6.8059,163.3817,141.007523,12.9,3
51:44.6,0.4038,-0.1999,-0.9849,0.3841,0.041,-0.0145,0.058,-0.1517,0.576,0.0204,0.2432,-0.9109,49.737195,-123.098919,6.8059,159.9273,141.007523,12.9,3
51:44.7,0.4525,-0.1552,-0.9719,0.4308,0.085,-0.0014,-0.0659,0.092,0.5833,0.0223,0.2426,-0.8509,49.737195,-123.098919,6.8059,156.9414,141.007523,12.9,3
51:44.8,0.5018,-0.1356,-0.9063,0.473,0.1041,0.0642,0.0313,0.3398,0.5991,0.0298,0.2421,-0.7883,49.737195,-123.098919,6.8059,153.5843,141.007523,12.9,3
51:44.9,0.5518,-0.1196,-0.9509,0.5261,0.1188,0.02,-0.0338,0.1026,0.5844,0.0265,0.2407,-0.7284,49.737195,-123.098919,6.8059,150.3244,141.007523,12.9,3
51:45.0,0.4816,-0.1629,-0.9758,0.4788,0.077,-0.005,0.0131,-0.024,0.5871,0.0029,0.2423,-0.6711,49.737195,-123.098919,6.8059,147.3028,141.007523,12.9,3
51:45.1,0.4488,-0.1648,-0.9794,0.4531,0.0783,-0.0094,0.013,0.0189,0.693,-0.0044,0.2456,-0.6027,49.737195,-123.098919,6.8059,143.4818,141.007523,12.9,3
51:45.2,0.4197,-0.1247,-0.9761,0.436,0.1212,-0.0069,0.0452,0.0515,0.5842,-0.0169,0.2484,-0.5416,49.737131,-123.098922,6.8059,139.8777,140.858307,12,3
51:45.3,0.4305,-0.1856,-1.0032,0.4421,0.0646,-0.035,0.0407,0.2145,0.7225,-0.012,0.2528,-0.4704,49.737131,-123.098922,6.8059,136.0738,140.858307,12,3
51:45.4,0.4817,-0.2253,-0.8801,0.4563,0.0261,0.0875,-0.0074,0.7187,0.7713,0.0263,0.254,-0.3904,49.737131,-123.098922,6.8059,131.5002,140.858307,12,3
51:45.5,0.4724,-0.1688,-0.9925,0.4521,0.0711,-0.0131,-0.1832,-0.3682,0.5091,0.0009,0.2391,-0.3353,49.737131,-123.098922,6.8059,128.7493,140.858307,12,3
51:45.6,0.5837,-0.1592,-1.0425,0.583,0.0752,-0.0703,0.0559,0.353,0.5351,0.0007,0.2366,-0.2787,49.737131,-123.098922,6.8059,125.6457,140.858307,12,3
51:45.7,0.54,-0.1539,-0.9626,0.5498,0.1189,-0.0142,0.0527,0.008,0.567,-0.0105,0.2363,-0.2299,49.737131,-123.098922,6.8059,122.8451,140.858307,12,3
51:45.8,0.5134,-0.193,-0.9622,0.525,0.0544,0.0067,0.1817,0.0814,0.7252,-0.0119,0.25,-0.1569,49.737131,-123.098922,6.8059,118.1737,140.858307,12,3
51:45.9,0.5299,-0.1673,-0.8748,0.536,0.075,0.0954,-0.0935,0.5479,0.5251,-0.0063,0.2447,-0.0997,49.737131,-123.098922,6.8059,114.7607,140.858307,12,3
51:46.0,0.4525,-0.2214,-1.0757,0.4872,0.0158,-0.1048,-0.0167,-0.4603,0.576,-0.0357,0.2395,-0.0376,49.737131,-123.098922,6.8059,111.3714,140.858307,12,3
51:46.1,0.5921,-0.1608,-0.8861,0.6072,0.074,0.0858,0.0686,0.5579,0.6063,-0.0156,0.237,0.0267,49.737131,-123.098922,6.8059,107.7565,140.858307,12,3
51:46.2,0.3576,-0.2657,-0.9321,0.3972,-0.0325,0.0395,0.049,-0.172,0.9112,-0.0408,0.2354,0.1103,49.737069,-123.098728,6.8788,103.2297,140.843399,6,3
51:46.3,0.443,-0.1912,-0.8493,0.4547,0.0443,0.1225,-0.02,0.5449,0.6596,-0.0121,0.2377,0.178,49.737069,-123.098728,6.8788,100.058,140.843399,6,3
51:46.4,0.4925,-0.1892,-0.9969,0.5125,0.0382,-0.0276,-0.1672,-0.0053,0.505,-0.0174,0.2246,0.2297,49.737069,-123.098728,6.8788,96.5321,140.843399,6,3
51:46.5,0.548,-0.1595,-0.9005,0.564,0.0505,0.0771,-0.0433,0.1385,0.4777,-0.0164,0.2115,0.2819,49.737069,-123.098728,6.8788,93.8038,140.843399,6,3
51:46.6,0.4115,-0.1695,-0.8426,0.4326,0.0426,0.1344,0.0729,0.0716,0.6056,-0.0216,0.2137,0.3423,49.737069,-123.098728,6.8788,90.5502,140.843399,6,3
51:46.7,0.3891,-0.2436,-0.9296,0.41,-0.0343,0.048,-0.0317,0.1353,0.6304,-0.0213,0.2108,0.4025,49.737069,-123.098728,6.8788,87.1616,140.843399,6,3
51:46.8,0.511,-0.1506,-0.9587,0.5192,0.0487,0.0212,-0.0969,0.1096,0.6666,-0.0084,0.2006,0.4663,49.737069,-123.098728,6.8788,83.5191,140.843399,6,3
51:46.9,0.4407,-0.186,-0.9267,0.4507,0.0095,0.054,0.0602,0.3286,0.5232,-0.0102,0.1968,0.5179,49.737069,-123.098728,6.8788,80.2518,140.843399,6,3
51:47.0,0.4014,-0.1959,-0.8802,0.4107,-0.0058,0.1015,-0.0561,0.0928,0.4658,-0.0095,0.1913,0.5684,49.737069,-123.098728,6.8788,77.4179,140.843399,6,3
51:47.1,0.3712,-0.1977,-0.937,0.383,-0.0099,0.0451,0.0015,-0.1225,0.5174,-0.012,0.189,0.6211,49.737069,-123.098728,6.8788,74.4419,140.843399,6,3
51:47.2,0.4758,-0.1914,-0.9048,0.4697,-0.0011,0.0769,0.0141,0.2863,0.647,0.0062,0.1915,0.6824,49.737031,-123.098649,6.8788,71.1784,140.841904,6,3
51:47.3,0.4301,-0.1999,-0.9568,0.4234,-0.0137,0.0257,-0.0103,0.1835,0.5868,0.0068,0.1873,0.7408,49.737031,-123.098649,6.8788,67.7217,140.841904,6,3
51:47.4,0.4176,-0.2032,-0.939,0.4111,-0.0186,0.0438,-0.052,0.0719,0.5757,0.0066,0.1857,0.7965,49.737031,-123.098649,6.8788,64.5349,140.841904,6,3
51:47.5,0.4833,-0.1894,-0.9754,0.482,-0.0119,0.0087,-0.133,-0.0468,0.5016,0.0014,0.1784,0.8474,49.737031,-123.098649,6.8788,61.4401,140.841904,6,3
51:47.6,0.4815,-0.1442,-0.8556,0.4695,0.0363,0.1108,-0.0455,0.2531,0.5273,0.0087,0.1748,0.8954,49.737031,-123.098649,6.8788,58.656,140.841904,6,3
51:47.7,0.3783,-0.2204,-0.9334,0.3711,-0.0465,0.0514,0.0184,0.0693,0.628,0.0073,0.1747,0.9594,49.737031,-123.098649,6.8788,55.3078,140.841904,6,3
51:47.8,0.4491,-0.2179,-0.9389,0.4186,-0.0285,0.0545,0.0197,0.2,0.5079,0.0179,0.1764,1.0099,49.737031,-123.098649,6.8788,52.0849,140.841904,6,3
51:47.9,0.4464,-0.1981,-0.9836,0.4223,-0.0254,0.0011,-0.0371,0.0769,0.6163,0.0244,0.1735,1.0723,49.737031,-123.098649,6.8788,48.8672,140.841904,6,3
51:48.0,0.465,-0.1852,-0.9387,0.4382,-0.0132,0.046,0.0314,0.2095,0.5132,0.0271,0.1729,1.1242,49.737031,-123.098649,6.8788,45.6259,140.841904,6,3
51:48.1,0.4121,-0.2045,-0.9632,0.3942,-0.0378,0.0226,-0.0369,0.0127,0.504,0.0182,0.1674,1.1754,49.737031,-123.098649,6.8788,42.8392,140.841904,6,3
51:48.2,0.418,-0.203,-0.9272,0.3969,-0.0362,0.0586,-0.0243,0.1662,0.623,0.0215,0.1676,1.236,49.737015,-123.09856,5.852,39.5548,140.841751,6,3
51:48.3,0.4574,-0.1942,-0.9688,0.4268,-0.0271,0.0167,-0.0211,0.2417,0.6383,0.031,0.1679,1.2954,49.737015,-123.09856,5.852,36.1204,140.841751,6,3
51:48.4,0.414,-0.1941,-0.9492,0.3703,-0.0283,0.0359,-0.0509,0.2239,0.603,0.0443,0.1665,1.3548,49.737015,-123.09856,5.852,32.651,140.841751,6,3
51:48.5,0.4392,-0.2092,-0.9725,0.3922,-0.0429,0.0125,-0.0017,0.1458,0.4916,0.0477,0.1671,1.4046,49.737015,-123.09856,5.852,29.5949,140.841751,6,3
51:48.6,0.518,-0.174,-0.8697,0.4633,-0.0113,0.1155,-0.0957,0.135,0.5194,0.0555,0.1634,1.4559,49.737015,-123.09856,5.852,26.7667,140.841751,6,3
51:48.7,0.4345,-0.1873,-0.9629,0.3731,-0.0094,0.0423,0.0249,0.0259,0.5948,0.0513,0.1657,1.5118,49.737015,-123.09856,5.852,23.5592,140.841751,6,3
51:48.8,0.4536,-0.2552,-0.9697,0.4002,-0.0849,0.0142,0.074,0.0494,0.5799,0.0542,0.1711,1.5731,49.737015,-123.09856,5.852,20.2205,140.841751,6,3
51:48.9,0.4132,-0.2396,-0.9654,0.3504,-0.067,0.0176,0.0015,0.302,0.5317,0.0638,0.1735,1.6272,49.737015,-123.09856,5.852,17.0618,140.841751,6,3
51:49.0,0.3792,-0.2294,-1.0259,0.3633,-0.0689,-0.1087,-0.0424,-0.0911,0.5901,0.0622,0.174,1.6802,49.737015,-123.09856,5.852,13.9052,140.841751,6,3
51:49.1,0.5317,-0.1803,-0.8216,0.4388,0.0039,0.1569,-0.0072,0.4834,0.6145,0.0946,0.1852,1.7398,49.737015,-123.09856,5.852,10.6943,140.841751,6,3
51:49.2,0.4161,-0.2097,-1.0283,0.3604,-0.0316,-0.0458,-0.0528,-0.4282,0.3882,0.0566,0.1791,1.7822,49.737048,-123.098468,5.221,7.7376,140.841736,6,3
51:49.3,0.4255,-0.196,-0.9126,0.378,-0.0091,0.0687,0.0708,0.1368,0.561,0.0484,0.188,1.8328,49.737048,-123.098468,5.221,5.3686,140.841736,6,3
51:49.4,0.339,-0.2066,-1.0183,0.3124,-0.0177,-0.0366,0.0143,-0.16,0.5546,0.0271,0.19,1.8917,49.737048,-123.098468,5.221,1.9071,140.841736,6,3
51:49.5,0.361,-0.2096,-1.0171,0.3321,-0.0137,-0.0369,0.0495,0.1285,0.5311,0.0295,0.1971,1.9454,49.737048,-123.098468,5.221,358.857,140.841736,6,3
51:49.6,0.3796,-0.2076,-0.8565,0.3372,-0.0118,0.1232,-0.0104,0.4484,0.5973,0.0432,0.197,2.0056,49.737048,-123.098468,5.221,355.5899,140.841736,6,3
51:49.7,0.349,-0.1913,-0.9494,0.3328,0.0057,0.0284,-0.0936,-0.1259,0.5483,0.0337,0.1917,2.0604,49.737048,-123.098468,5.221,352.0653,140.841736,6,3
51:49.8,0.3118,-0.2068,-0.9508,0.2713,-0.0246,0.0479,0.0335,-0.0205,0.5306,0.0306,0.1971,2.1152,49.737048,-123.098468,5.221,348.7197,140.841736,6,3
51:49.9,0.3412,-0.2411,-0.9559,0.3035,-0.0547,0.0243,0.0474,0.1488,0.5173,0.0256,0.1995,2.1661,49.737048,-123.098468,5.221,345.7407,140.841736,6,3
51:50.0,0.2943,-0.2207,-0.9733,0.2714,-0.0222,0.0066,-0.0466,0.0263,0.5489,0.0233,0.1998,2.2234,49.737048,-123.098468,5.221,342.53,140.841736,6,3
51:50.1,0.309,-0.2096,-0.9265,0.2781,-0.0027,0.0514,0.0505,0.259,0.5988,0.0317,0.2084,2.2823,49.737048,-123.098468,5.221,339.1728,140.841736,6,3
51:50.2,0.2539,-0.2546,-0.8852,0.2215,-0.045,0.0921,0.0218,0.2936,0.5082,0.0331,0.2112,2.3356,49.737167,-123.098577,5.221,335.9398,140.841736,12.4,3
51:50.3,0.2751,-0.2321,-0.9653,0.2476,-0.0287,0.0134,-0.2164,-0.1432,0.5974,0.0281,0.2047,2.3978,49.737167,-123.098577,5.221,332.6332,140.841736,12.4,3
51:50.4,0.2353,-0.2682,-0.8422,0.191,-0.0649,0.136,-0.0457,0.3628,0.6696,0.0453,0.2046,2.4664,49.737167,-123.098577,5.221,327.8188,140.841736,12.4,3
51:50.5,0.2888,-0.233,-1.0005,0.2592,-0.0431,-0.0191,-0.2227,-0.2766,0.5008,0.0302,0.1911,2.5215,49.737167,-123.098577,5.221,324.308,140.841736,12.4,3
51:50.6,0.2838,-0.2215,-0.9026,0.2693,-0.0334,0.0795,-0.0036,0.0765,0.3441,0.0148,0.1892,2.5558,49.737167,-123.098577,5.221,322.2544,140.841736,12.4,3
51:50.7,0.2406,-0.2069,-0.9019,0.2318,-0.011,0.0787,0.0794,-0.0259,0.5466,0.009,0.1971,2.6069,49.737167,-123.098577,5.221,319.3137,140.841736,12.4,3
51:50.8,0.1634,-0.2389,-0.9972,0.1618,-0.0291,-0.0195,0.1275,0.0255,0.4912,0.0017,0.2113,2.657,49.737167,-123.098577,5.221,316.2459,140.841736,12.4,3
51:50.9,0.3112,-0.2326,-0.9018,0.2954,-0.0144,0.074,0.0805,0.2189,0.5303,0.0162,0.22,2.7083,49.737167,-123.098577,5.221,313.2206,140.841736,12.4,3
51:51.0,0.2679,-0.2271,-1.0311,0.2697,-0.0182,-0.0532,-0.0509,-0.1003,0.5442,-0.0018,0.2105,2.761,49.737167,-123.098577,5.221,310.0558,140.841736,12.4,3
51:51.1,0.2106,-0.2103,-0.9433,0.2199,0.0004,0.0342,0.0218,0.0648,0.5106,-0.0095,0.2124,2.8126,49.737167,-123.098577,5.221,306.9539,140.841736,12.4,3
51:51.2,0.16,-0.2245,-0.9679,0.1642,-0.0126,0.0094,0.0506,0.2574,0.5177,-0.0043,0.2135,2.8625,49.737209,-123.098596,5.604,303.9765,140.841736,10.8,3
51:51.3,0.2569,-0.1962,-1.037,0.252,0.0177,-0.0601,0.0015,0.0881,0.5342,0.005,0.2156,2.9144,49.737209,-123.098596,5.604,300.8974,140.841736,10.8,3
51:51.4,0.3138,-0.1756,-0.8429,0.2849,0.0414,0.1328,0.0707,0.5854,0.6352,0.0296,0.2187,2.9744,49.737209,-123.098596,5.604,297.4713,140.841736,10.8,3
51:51.5,0.1717,-0.2219,-1.0204,0.1518,-0.0093,-0.0435,-0.0542,0.0193,0.6417,0.0204,0.2143,3.0353,49.737209,-123.098596,5.604,293.7909,140.841736,10.8,3
51:51.6,0.2448,-0.2367,-0.9104,0.2138,-0.0161,0.0645,0.043,0.2451,0.5998,0.0318,0.2225,3.0962,49.737209,-123.098596,5.604,290.2293,140.841736,10.8,3
51:51.7,0.2257,-0.234,-1.0098,0.1874,-0.0163,-0.0345,-0.0338,0.1708,0.575,0.0392,0.2195,-3.1286,49.737209,-123.098596,5.604,286.7231,140.841736,10.8,3
51:51.8,0.2567,-0.2326,-0.9496,0.2128,-0.0158,0.0256,-0.0871,0.135,0.5226,0.045,0.2185,-3.0757,49.737209,-123.098596,5.604,283.5516,140.841736,10.8,3
51:51.9,0.2356,-0.2074,-0.945,0.1927,0.0125,0.0296,0.1148,0.1558,0.4148,0.044,0.2218,-3.0352,49.737209,-123.098596,5.604,281.0781,140.841736,10.8,3
51:52.0,0.2086,-0.243,-1.0061,0.1579,-0.0171,-0.0332,-0.0647,0.0912,0.5502,0.0521,0.2279,-2.9825,49.737209,-123.098596,5.604,278.1059,140.841736,10.8,3
51:52.1,0.3247,-0.2084,-0.8971,0.2536,0.026,0.0724,0.0666,0.317,0.5157,0.0732,0.2366,-2.9308,49.737209,-123.098596,5.604,275.0434,140.841736,10.8,3
51:52.2,0.198,-0.2298,-0.9716,0.1346,0.0065,-0.002,0.0251,0.0631,0.438,0.0653,0.2385,-2.8853,49.737243,-123.098621,5.9557,272.3816,140.841736,6,3
51:52.3,0.2872,-0.1957,-0.96,0.2183,0.042,0.0089,-0.1875,-0.0088,0.5498,0.071,0.24,-2.8307,49.737243,-123.098621,5.9557,269.2713,140.841736,6,3
51:52.4,0.2513,-0.2318,-0.9431,0.1828,0.0168,0.0231,0.2151,0.297,0.4612,0.0707,0.2512,-2.7823,49.737243,-123.098621,5.9557,266.3368,140.841736,6,3
51:52.5,0.2814,-0.2041,-0.9769,0.2152,0.0435,-0.0103,-0.2248,-0.1199,0.4555,0.0684,0.2501,-2.735,49.737243,-123.098621,5.9557,263.6031,140.841736,6,3
51:52.6,0.212,-0.2196,-0.9469,0.1435,0.0335,0.0181,0.118,0.141,0.4083,0.0708,0.2559,-2.693,49.737243,-123.098621,5.9557,261.1447,140.841736,6,3
51:52.7,0.2643,-0.2007,-0.9513,0.1859,0.055,0.0315,-0.0315,0.0981,0.4659,0.0816,0.2586,-2.6482,49.737243,-123.098621,5.9557,258.4984,140.841736,6,3
51:52.8,0.3252,-0.2082,-0.9475,0.2134,0.0532,0.0026,0.1222,0.4641,0.4682,0.0977,0.2653,-2.6002,49.737243,-123.098621,5.9557,255.6944,140.841736,6,3
51:52.9,0.3333,-0.1814,-0.9597,0.2441,0.0767,0.0023,-0.0795,0.1122,0.4243,0.0925,0.261,-2.5555,49.737243,-123.098621,5.9557,253.1842,140.841736,6,3
51:53.0,0.3028,-0.1896,-0.9473,0.219,0.0602,-0.0294,-0.0517,-0.078,0.3862,0.0728,0.2566,-2.5183,49.737243,-123.098621,5.9557,250.9621,140.841736,6,3
51:53.1,0.2909,-0.1608,-0.9758,0.2397,0.0904,-0.0093,-0.1297,-0.2412,0.4465,0.053,0.254,-2.4733,49.737243,-123.098621,5.9557,248.4588,140.841736,6,3
51:53.2,0.2689,-0.1601,-0.9526,0.2198,0.0978,0.0123,0.1457,0.2205,0.4556,0.0508,0.2609,-2.4315,49.737275,-123.098737,5.9425,246.1791,140.841736,10.2,3
51:53.3,0.2632,-0.2211,-0.9968,0.2272,0.0396,-0.032,-0.0348,-0.2235,0.4893,0.0374,0.2638,-2.3837,49.737275,-123.098737,5.9425,243.4348,140.841736,10.2,3
51:53.4,0.3679,-0.1534,-0.9175,0.3253,0.1031,0.0481,-0.0358,0.2802,0.4547,0.0441,0.2594,-2.3391,49.737275,-123.098737,5.9425,240.9865,140.841736,10.2,3
51:53.5,0.26,-0.1879,-0.9854,0.229,0.0707,-0.0199,0.0099,-0.0986,0.5912,0.0321,0.2616,-2.2815,49.737275,-123.098737,5.9425,237.8155,140.841736,10.2,3
51:53.6,0.3319,-0.189,-0.8663,0.2847,0.0788,0.096,0.0858,0.4252,0.5535,0.049,0.2711,-2.2231,49.737275,-123.098737,5.9425,234.5181,140.841736,10.2,3
51:53.7,0.2609,-0.2473,-1.0586,0.2229,0.0168,-0.0948,-0.0447,-0.0579,0.7237,0.0394,0.2673,-2.1542,49.737275,-123.098737,5.9425,230.6304,140.841736,10.2,3
51:53.8,0.4155,-0.1425,-0.8967,0.3527,0.1274,0.0642,0.0956,0.5987,0.3854,0.0653,0.2733,-2.1123,49.737275,-123.098737,5.9425,227.9754,140.841736,10.2,3
51:53.9,0.2236,-0.1933,-1.0664,0.2526,0.1084,-0.1101,0.0222,-0.6484,0.2027,0.0135,0.27,-2.0876,49.737275,-123.098737,5.9425,226.7853,140.841736,10.2,3
51:54.0,0.3101,-0.1647,-0.8979,0.2652,0.1344,0.0695,0.2256,0.5475,0.5635,0.0411,0.2863,-2.0354,49.737275,-123.098737,5.9425,223.9453,140.841736,10.2,3
51:54.1,0.3004,-0.1906,-0.9336,0.2276,0.1012,0.0201,0.0738,0.6749,0.7925,0.0762,0.296,-1.9508,49.737275,-123.098737,5.9425,219.4644,140.841736,10.2,3
51:54.2,0.3826,-0.2189,-1.0178,0.3089,0.0729,-0.0641,-0.1843,-0.1119,0.5238,0.0771,0.2961,-1.8908,49.737259,-123.098844,5.9557,215.6885,140.841736,10.7,3
51:54.3,0.4127,-0.1909,-0.9451,0.3474,0.0966,0.0104,-0.0314,0.0998,0.3644,0.0682,0.2916,-1.8501,49.737259,-123.098844,5.9557,214.5797,140.841736,10.7,3
51:54.4,0.3353,-0.144,-0.9169,0.2844,0.146,0.0388,-0.0412,-0.0967,0.4748,0.0532,0.2942,-1.8007,49.737259,-123.098844,5.9557,211.5434,140.841736,10.7,3
51:54.5,0.3843,-0.1596,-0.867,0.3387,0.1503,0.0827,0.1883,0.0569,0.5618,0.048,0.3151,-1.7433,49.737259,-123.098844,5.9557,208.5927,140.841736,10.7,3
51:54.6,0.3594,-0.1866,-0.9814,0.3337,0.1255,-0.0317,0.0154,-0.0396,0.5326,0.0271,0.3174,-1.6889,49.737259,-123.098844,5.9557,205.4436,140.841736,10.7,3
51:54.7,0.3618,-0.189,-1.0207,0.3387,0.1312,-0.0775,0.0088,0.2545,0.6351,0.032,0.316,-1.6256,49.737259,-123.098844,5.9557,202.1459,140.841736,10.7,3
51:54.8,0.3788,-0.2225,-0.9818,0.3336,0.0944,-0.0344,0.0514,0.4648,0.6999,0.0476,0.3225,-1.5474,49.737259,-123.098844,5.9557,197.0433,140.841736,10.7,3
51:54.9,0.4317,-0.2082,-0.9274,0.3813,0.1048,0.021,-0.0723,0.3205,0.6289,0.0531,0.3183,-1.4787,49.737259,-123.098844,5.9557,193.2515,140.841736,10.7,3
51:55.0,0.4492,-0.1462,-0.9502,0.4092,0.1621,0.0003,-0.0562,-0.1058,0.558,0.0421,0.3134,-1.4149,49.737259,-123.098844,5.9557,189.7528,140.841736,10.7,3
51:55.1,0.4035,-0.1964,-1.0064,0.3915,0.1219,-0.0585,0.1445,0.0088,0.6011,0.0127,0.324,-1.3545,49.737259,-123.098844,5.9557,186.4736,140.841736,10.7,3
51:55.2,0.4086,-0.1969,-0.9151,0.3814,0.1237,0.0317,-0.0511,0.4285,0.7147,0.0288,0.3264,-1.2838,49.737194,-123.098919,5.9585,183.6831,140.841736,10.4,3
51:55.3,0.4248,-0.185,-0.9618,0.4021,0.1259,-0.0116,-0.0296,0.2197,0.5933,0.0239,0.3162,-1.2197,49.737194,-123.098919,5.9585,179.9019,140.841736,10.4,3
51:55.4,0.4489,-0.1622,-0.988,0.4296,0.1449,-0.0365,-0.0627,0.0565,0.6397,0.0204,0.3121,-1.1567,49.737194,-123.098919,5.9585,176.6776,140.841736,10.4,3
51:55.5,0.5201,-0.1695,-0.9692,0.5047,0.137,-0.0174,0.0078,0.2919,0.6064,0.0161,0.3115,-1.0909,49.737194,-123.098919,5.9585,173.1602,140.841736,10.4,3
51:55.6,0.5318,-0.1901,-0.9639,0.5266,0.1149,-0.0115,-0.0029,0.1907,0.6306,0.0055,0.3099,-1.0195,49.737194,-123.098919,5.9585,169.4715,140.841736,10.4,3
51:55.7,0.4265,-0.1641,-0.8895,0.4321,0.1408,0.0629,-0.0043,0.1772,0.9028,-0.0058,0.3098,-0.9334,49.737194,-123.098919,5.9585,163.8698,140.841736,10.4,3
51:55.8,0.4606,-0.1926,-0.8962,0.4671,0.1166,0.0548,0.122,0.2851,0.663,-0.0069,0.3143,-0.8706,49.737194,-123.098919,5.9585,161.0832,140.841736,10.4,3
51:55.9,0.4097,-0.2684,-1.0275,0.435,0.0378,-0.0759,-0.0286,-0.0927,0.6745,-0.0266,0.3112,-0.8046,49.737194,-123.098919,5.9585,157.5161,140.841736,10.4,3
51:56.0,0.4372,-0.1775,-0.9524,0.4524,0.1241,0.0009,-0.0115,0.3883,0.6857,-0.016,0.3064,-0.7377,49.737194,-123.098919,5.9585,153.7309,140.841736,10.4,3
51:56.1,0.4598,-0.187,-0.8824,0.4705,0.1129,0.0715,-0.02,0.1771,0.5932,-0.0112,0.3045,-0.6735,49.737194,-123.098919,5.9585,149.871,140.841736,10.4,3
51:56.2,0.4134,-0.2486,-0.9859,0.4584,0.0495,-0.0325,0.0145,-0.325,0.3875,-0.0471,0.3027,-0.6256,49.737107,-123.098907,6.7134,146.7069,140.841736,6,3
51:56.3,0.4407,-0.1773,-0.9799,0.4978,0.1209,-0.0271,0.0207,0.0508,0.5415,-0.0599,0.3028,-0.5701,49.737107,-123.098907,6.7134,143.9128,140.841736,6,3
51:56.4,0.3841,-0.1987,-0.9556,0.4625,0.103,-0.0054,0.1018,-0.0984,0.557,-0.0822,0.3065,-0.5113,49.737107,-123.098907,6.7134,140.655,140.841736,6,3
51:56.5,0.3439,-0.2346,-1.009,0.4224,0.0782,-0.0624,0.2331,0.2654,0.57,-0.0826,0.3182,-0.4536,49.737107,-123.098907,6.7134,137.5013,140.841736,6,3
51:56.6,0.3983,-0.2792,-1.0058,0.4581,0.0329,-0.0577,0.0781,0.5369,0.7397,-0.063,0.3174,-0.377,49.737107,-123.098907,6.7134,132.4041,140.841736,6,3
51:56.7,0.4146,-0.2487,-0.9074,0.4627,0.0484,0.0462,-0.1577,0.2524,0.6415,-0.0505,0.3017,-0.3082,49.737107,-123.098907,6.7134,129.3053,140.841736,6,3
51:56.8,0.4204,-0.259,-1.1087,0.5064,0.0263,-0.1541,-0.0506,-0.4533,0.323,-0.0899,0.2894,-0.2646,49.737107,-123.098907,6.7134,126.1396,140.841736,6,3
51:56.9,0.383,-0.3134,-0.9737,0.4893,-0.028,-0.0354,0.1669,0.1986,0.5431,-0.0893,0.3002,-0.2123,49.737107,-123.098907,6.7134,123.5972,140.841736,6,3
51:57.0,0.3898,-0.2029,-0.9497,0.4685,0.098,0.0007,0.1617,0.2608,0.4707,-0.0826,0.3056,-0.1602,49.737107,-123.098907,6.7134,120.5391,140.841736,6,3
51:57.1,0.4433,-0.2363,-0.9338,0.521,0.0609,0.0178,0.0559,0.2016,0.5826,-0.0815,0.3017,-0.1033,49.737107,-123.098907,6.7134,117.6835,140.841736,6,3
51:57.2,0.3816,-0.2632,-1.0083,0.4683,0.0274,-0.0553,0.1188,-0.0081,0.5851,-0.0907,0.2949,-0.0388,49.737071,-123.098879,7.2461,114.0484,140.841736,10.7,3
51:57.3,0.4183,-0.1868,-0.8906,0.5027,0.101,0.0634,0.0442,0.0754,0.5096,-0.0882,0.2919,0.0176,49.737071,-123.098879,7.2461,110.6075,140.841736,10.7,3
51:57.4,0.3795,-0.2375,-1.0563,0.4795,0.043,-0.1016,-0.0615,0.0179,0.5286,-0.1043,0.2842,0.0721,49.737071,-123.098879,7.2461,107.5955,140.841736,10.7,3
51:57.5,0.4587,-0.1963,-0.8481,0.5208,0.0903,0.108,0.104,0.6277,0.5126,-0.0649,0.2906,0.1277,49.737071,-123.098879,7.2461,104.4636,140.841736,10.7,3
51:57.6,0.4557,-0.1651,-0.9718,0.5424,0.1104,-0.0144,-0.0359,-0.1906,0.5086,-0.0904,0.2791,0.1768,49.737071,-123.098879,7.2461,101.613,140.841736,10.7,3
51:57.7,0.4648,-0.1474,-0.858,0.5427,0.1228,0.1016,-0.0508,0.2553,0.5123,-0.081,0.2737,0.236,49.737071,-123.098879,7.2461,98.2512,140.841736,10.7,3
51:57.8,0.3987,-0.2065,-1.0515,0.492,0.0287,-0.0841,-0.4709,-0.0213,0.8658,-0.0961,0.2374,0.3123,49.737071,-123.098879,7.2461,93.4745,140.841736,10.7,3
51:57.9,0.4249,-0.2141,-0.8501,0.4879,0.0262,0.1186,0.2521,0.8179,0.7171,-0.065,0.2426,0.3865,49.737071,-123.098879,7.2461,89.2906,140.841736,10.7,3
51:58.0,0.3903,-0.1592,-0.9903,0.4543,0.0592,-0.0166,-0.2273,0.0534,0.802,-0.0656,0.2201,0.4641,49.737071,-123.098879,7.2461,84.4574,140.841736,10.7,3
51:58.1,0.497,-0.178,-0.8648,0.5662,0.0389,0.109,0.1383,0.2422,0.3927,-0.0709,0.2186,0.5035,49.737071,-123.098879,7.2461,82.118,140.841736,10.7,3
51:58.2,0.3187,-0.1829,-1.0869,0.4258,0.0344,-0.1167,0.052,-0.6357,0.2188,-0.1099,0.2191,0.5373,49.737049,-123.098825,6.7134,80.9246,140.841736,12.5,3
51:58.3,0.5457,-0.1726,-0.7571,0.6055,0.0619,0.2132,0.3303,1.052,0.5493,-0.0616,0.2367,0.5906,49.737049,-123.098825,6.7134,78.3668,140.841736,12.5,3
51:58.4,0.3888,-0.28,-0.9966,0.4651,-0.0561,-0.0249,-0.1481,-0.3041,0.6267,-0.0783,0.2258,0.6569,49.737049,-123.098825,6.7134,73.6518,140.841736,12.5,3
51:58.5,0.4059,-0.2382,-0.9452,0.4933,-0.0112,0.0248,0.2065,-0.117,0.4683,-0.0898,0.229,0.7126,49.737049,-123.098825,6.7134,70.3982,140.841736,12.5,3
51:58.6,0.4457,-0.1882,-0.9976,0.5318,0.0323,-0.026,-0.0721,0.0608,0.4711,-0.0884,0.2223,0.7685,49.737049,-123.098825,6.7134,67.2272,140.841736,12.5,3
51:58.7,0.4178,-0.2255,-0.9189,0.4923,-0.0054,0.0538,0.1583,0.4696,0.6081,-0.0764,0.2219,0.8324,49.737049,-123.098825,6.7134,63.6522,140.841736,12.5,3
51:58.8,0.3395,-0.2116,-0.8959,0.4331,-0.0063,0.1023,-0.1428,0.0829,0.6804,-0.0703,0.2094,0.8933,49.737049,-123.098825,6.7134,59.9855,140.841736,12.5,3
51:58.9,0.4062,-0.2083,-0.961,0.4648,-0.0018,0.0156,0.1061,0.2676,0.5711,-0.0599,0.2081,0.9542,49.737049,-123.098825,6.7134,56.689,140.841736,12.5,3
51:59.0,0.4098,-0.2207,-0.9791,0.4505,-0.0172,-0.0009,-0.0713,0.2383,0.6735,-0.0417,0.2048,1.0213,49.737049,-123.098825,6.7134,52.9437,140.841736,12.5,3
51:59.1,0.4458,-0.1959,-0.9783,0.479,0.0023,0.0013,-0.0647,0.1722,0.5344,-0.0339,0.1996,1.0809,49.737049,-123.098825,6.7134,49.3802,140.841736,12.5,3
51:59.2,0.496,-0.2227,-0.9611,0.5252,-0.0293,0.0196,-0.0275,0.1831,0.653,-0.0297,0.1947,1.1439,49.737048,-123.098668,5.9958,45.8908,140.841736,6,3
51:59.3,0.3838,-0.1979,-0.9079,0.3794,0.0013,0.072,0.2022,0.6617,0.5116,0.0045,0.2006,1.2001,49.737048,-123.098668,5.9958,42.7303,140.841736,6,3
51:59.4,0.4421,-0.1836,-0.953,0.4283,0.0014,0.0296,-0.1266,0.1255,0.5172,0.014,0.186,1.2595,49.737048,-123.098668,5.9958,39.2391,140.841736,6,3
51:59.5,0.4755,-0.2695,-0.944,0.4382,-0.0686,0.0322,0.0293,-0.0104,0.4537,0.0128,0.1895,1.3101,49.737048,-123.098668,5.9958,36.0571,140.841736,6,3
51:59.6,0.5328,-0.2482,-0.9081,0.52,-0.0648,0.0748,-0.0925,0.0889,0.5779,0.0131,0.1844,1.3698,49.737048,-123.098668,5.9958,33.1205,140.841736,6,3
51:59.7,0.4867,-0.2986,-0.7951,0.4693,-0.1234,0.1893,-0.0275,0.1237,0.6218,0.0178,0.1761,1.4349,49.737048,-123.098668,5.9958,30.2274,140.841736,6,3
51:59.8,0.4777,-0.2562,-0.8886,0.4747,-0.0927,0.0979,-0.0369,-0.1753,0.4564,0.0031,0.1642,1.4818,49.737048,-123.098668,5.9958,27.1294,140.841736,6,3
51:59.9,0.3897,-0.2053,-0.9713,0.3758,-0.0327,0.0136,0.1124,0.0235,0.6364,0.0141,0.1735,1.5457,49.737048,-123.098668,5.9958,23.7539,140.841736,6,3
52:00.0,0.5025,-0.1868,-0.9479,0.4744,-0.009,0.0358,0.0075,0.3766,0.8427,0.0286,0.1788,1.6122,49.737048,-123.098668,5.9958,19.03,140.841736,6,3
52:00.1,0.4095,-0.2727,-0.9505,0.3741,-0.0911,0.0322,0.0911,0.476,0.6028,0.036,0.1827,1.6715,49.737048,-123.098668,5.9958,15.6402,140.841736,6,3
52:00.2,0.4475,-0.1932,-0.8611,0.4139,-0.0162,0.1225,-0.1619,-0.2993,0.5424,0.0342,0.1779,1.7318,49.737095,-123.098602,5.5595,12.1779,140.841736,10.2,3
52:00.3,0.3321,-0.2776,-0.961,0.3158,-0.0976,0.0225,0.0678,0.0716,0.4487,0.0166,0.1811,1.7791,49.737095,-123.098602,5.5595,9.2466,140.841736,10.2,3
52:00.4,0.3268,-0.2853,-0.9805,0.3102,-0.1013,0.0023,-0.1428,-0.0564,0.666,0.0168,0.1851,1.8435,49.737095,-123.098602,5.5595,6.4338,140.841736,10.2,3
52:00.5,0.3865,-0.2077,-0.9257,0.3661,-0.017,0.0558,0.0826,0.3094,0.5264,0.0208,0.1918,1.8931,49.737095,-123.098602,5.5595,3.3783,140.841736,10.2,3
52:00.6,0.3281,-0.2781,-0.9825,0.3005,-0.0895,-0.0501,0.0441,0.0357,0.5671,0.0157,0.1936,1.9464,49.737095,-123.098602,5.5595,0.0502,140.841736,10.2,3
52:00.7,0.4082,-0.2511,-0.9026,0.3822,-0.0581,0.0782,-0.0883,0.0332,0.6322,0.0265,0.1943,2.0108,49.737095,-123.098602,5.5595,356.4058,140.841736,10.2,3
52:00.8,0.3552,-0.2516,-0.9435,0.34,-0.0557,0.037,0.1211,0.0934,0.515,0.0155,0.1971,2.0632,49.737095,-123.098602,5.5595,352.8976,140.841736,10.2,3
52:00.9,0.2927,-0.3002,-1.0195,0.2805,-0.0976,-0.0403,0.0207,0.0922,0.5566,0.0125,0.204,2.1175,49.737095,-123.098602,5.5595,349.7552,140.841736,10.2,3
52:01.0,0.3332,-0.2326,-0.9523,0.3497,-0.0465,0.0418,-0.0903,0.0341,0.4923,0.0126,0.2024,2.165,49.737095,-123.098602,5.5595,346.5169,140.841736,10.2,3
52:01.1,0.3333,-0.2128,-0.9233,0.3223,-0.0132,0.0565,0.0462,0.2259,0.6147,0.0112,0.201,2.2252,49.737095,-123.098602,5.5595,343.2857,140.841736,10.2,3
52:01.2,0.2509,-0.2939,-0.8934,0.2564,-0.0948,0.0865,-0.0295,-0.1694,0.5226,-0.0056,0.2004,2.2801,49.737122,-123.098584,4.3942,339.7126,140.841736,12.2,3
52:01.3,0.2879,-0.2008,-0.9445,0.298,-0.0015,0.0354,-0.0583,-0.1152,0.5398,-0.0103,0.2007,2.335,49.737122,-123.098584,4.3942,336.5078,140.841736,12.2,3
52:01.4,0.2571,-0.2813,-0.9081,0.2421,-0.0778,0.0709,-0.0095,0.5462,0.7749,0.0153,0.205,2.4052,49.737122,-123.098584,4.3942,331.6862,140.841736,12.2,3
52:01.5,0.3207,-0.2131,-0.8801,0.305,-0.0359,0.1107,-0.2497,0.2166,0.7535,0.0277,0.1915,2.4792,49.737122,-123.098584,4.3942,327.2639,140.841736,12.2,3
52:01.6,0.2456,-0.2819,-0.9784,0.2364,-0.0777,0.0005,0.199,-0.0311,0.5102,0.0094,0.2057,2.5285,49.737122,-123.098584,4.3942,324.1604,140.841736,12.2,3
52:01.7,0.2698,-0.2445,-0.9121,0.2409,-0.0421,0.0668,-0.132,0.3296,0.5531,0.0295,0.2037,2.5834,49.737122,-123.098584,4.3942,320.9938,140.841736,12.2,3
52:01.8,0.2551,-0.2914,-0.9009,0.2251,-0.0849,0.0771,0.0837,0.0127,0.5019,0.0307,0.2079,2.6357,49.737122,-123.098584,4.3942,317.9674,140.841736,12.2,3
52:01.9,0.2879,-0.2614,-0.9652,0.2584,-0.051,0.012,0.0196,0.0389,0.5617,0.0302,0.2119,2.6879,49.737122,-123.098584,4.3942,314.9502,140.841736,12.2,3
52:02.0,0.2635,-0.3375,-0.9672,0.2287,-0.1141,0.0069,0.1627,0.1817,0.5249,0.0357,0.2254,2.7422,49.737122,-123.098584,4.3942,311.7099,140.841736,12.2,3
52:02.1,0.2926,-0.2627,-0.8755,0.2483,-0.0284,0.1192,-0.129,0.249,0.6756,0.0481,0.2246,2.8048,49.737122,-123.098584,4.3942,308.8974,140.841736,12.2,3
52:02.2,0.236,-0.2807,-1.0639,0.1987,-0.0659,-0.088,-0.117,-0.1151,0.5249,0.0382,0.2165,2.8627,49.737151,-123.098579,4.3942,305.1754,140.841736,11.5,3
52:02.3,0.3155,-0.3062,-0.7976,0.2444,-0.0677,0.1819,0.3249,0.5442,0.5774,0.0659,0.2501,2.9125,49.737151,-123.098579,4.3942,302.2453,140.841736,11.5,3
52:02.4,0.2861,-0.2798,-0.9348,0.2293,-0.0427,0.0351,-0.1446,0.0956,0.3698,0.0585,0.2395,2.9573,49.737151,-123.098579,4.3942,299.4661,140.841736,11.5,3
52:02.5,0.2753,-0.2371,-0.8575,0.2029,-0.0038,0.1122,-0.2388,0.1262,0.5749,0.0746,0.2356,3.0182,49.737151,-123.098579,4.3942,296.3521,140.841736,11.5,3
52:02.6,0.3134,-0.2976,-0.9457,0.2406,-0.0597,0.0228,0.0538,0.0701,0.5138,0.075,0.2402,3.0724,49.737151,-123.098579,4.3942,292.8698,140.841736,11.5,3
52:02.7,0.2925,-0.3062,-0.9681,0.2137,-0.0656,-0.0007,-0.1012,0.1406,0.6454,0.0813,0.243,3.1336,49.737151,-123.098579,4.3942,289.5469,140.841736,11.5,3
52:02.8,0.3875,-0.2812,-0.8938,0.3043,-0.0327,0.0712,0.2759,0.432,0.4884,0.086,0.2511,-3.1044,49.737151,-123.098579,4.3942,286.5425,140.841736,11.5,3
52:02.9,0.2629,-0.2917,-0.9913,0.19,-0.0434,-0.0114,-0.2911,-0.0661,0.54,0.0794,0.2426,-3.0533,49.737151,-123.098579,4.3942,283.5758,140.841736,11.5,3
52:03.0,0.3531,-0.2507,-0.8647,0.263,0.0078,0.0971,0.291,0.3676,0.4038,0.0934,0.2614,-3.0089,49.737151,-123.098579,4.3942,280.7815,140.841736,11.5,3
52:03.1,0.2466,-0.2514,-0.8742,0.1542,0.005,0.088,-0.0058,0.173,0.3967,0.0957,0.2592,-2.9659,49.737151,-123.098579,4.3942,278.2107,140.841736,11.5,3
52:03.2,0.2969,-0.2575,-1.1115,0.2272,0.0004,-0.1479,-0.0977,-0.3721,0.4375,0.0722,0.2609,-2.9202,49.737244,-123.098623,4.3942,275.4926,140.841736,13.6,3
52:03.3,0.4234,-0.2181,-0.8552,0.3369,0.0394,0.1072,-0.1096,0.5167,0.5869,0.0896,0.2605,-2.8669,49.737244,-123.098623,4.3942,273.0068,140.841736,13.6,3
52:03.4,0.2569,-0.3059,-1.0986,0.2007,-0.0521,-0.133,0.0261,-0.3096,0.4719,0.0581,0.2566,-2.8178,49.737244,-123.098623,4.3942,269.7126,140.841736,13.6,3
52:03.5,0.3935,-0.2166,-0.9353,0.3268,0.0511,0.0259,0.0198,0.3507,0.4048,0.0693,0.271,-2.7785,49.737244,-123.098623,4.3942,266.8681,140.841736,13.6,3
52:03.6,0.3328,-0.2323,-0.9998,0.2717,0.0374,-0.0388,-0.0093,0.0601,0.5864,0.0636,0.2731,-2.7211,49.737244,-123.098623,4.3942,263.7318,140.841736,13.6,3
52:03.7,0.3105,-0.2491,-0.9342,0.2377,0.02,0.0262,-0.0434,0.3229,0.5948,0.0757,0.2725,-2.6612,49.737244,-123.098623,4.3942,260.1287,140.841736,13.6,3
52:03.8,0.3645,-0.2139,-0.9708,0.2932,0.0573,-0.0109,0.025,0.2002,0.478,0.0742,0.2746,-2.6142,49.737244,-123.098623,4.3942,257.4103,140.841736,13.6,3
52:03.9,0.3607,-0.1865,-1.0138,0.3308,0.0769,-0.0313,-0.022,0.0933,0.5459,0.0616,0.2726,-2.5643,49.737244,-123.098623,4.3942,254.4958,140.841736,13.6,3
52:04.0,0.3538,-0.1896,-0.914,0.2898,0.0706,0.0495,-0.0338,0.2805,0.569,0.0663,0.2632,-2.5022,49.737244,-123.098623,4.3942,251.215,140.841736,13.6,3
52:04.1,0.4028,-0.1528,-0.9251,0.3343,0.0919,0.0421,-0.1461,0.2038,0.7481,0.0707,0.2471,-2.4263,49.737244,-123.098623,4.3942,247.1298,140.841736,13.6,3
52:04.2,0.373,-0.1683,-0.9945,0.3082,0.0491,-0.0205,-0.2529,0.2711,0.711,0.0664,0.2191,-2.3507,49.737275,-123.098733,5.7751,242.8152,140.841736,15.1,3
52:04.3,0.307,-0.201,-0.9821,0.244,0.0081,-0.0063,-0.0392,-0.068,0.6382,0.0644,0.2107,-2.2812,49.737275,-123.098733,5.7751,238.8425,140.841736,15.1,3
52:04.4,0.4068,-0.1122,-0.9018,0.3273,0.0807,0.0762,-0.2176,0.2,0.6904,0.0811,0.1941,-2.2153,49.737275,-123.098733,5.7751,235.0513,140.841736,15.1,3
52:04.5,0.3474,-0.14,-0.9538,0.264,0.0484,0.0247,-0.0594,0.2176,0.5848,0.0849,0.1896,-2.1566,49.737275,-123.098733,5.7751,231.8062,140.841736,15.1,3
52:04.6,0.4259,-0.0356,-0.88,0.3386,0.144,0.0999,-0.2002,0.0058,0.4271,0.0888,0.1806,-2.1071,49.737275,-123.098733,5.7751,228.928,140.841736,15.1,3
52:04.7,0.4254,-0.0369,-0.9267,0.3457,0.1348,0.0552,-0.1726,0.1977,0.5473,0.0809,0.1725,-2.0559,49.737275,-123.098733,5.7751,226.2936,140.841736,15.1,3
52:04.8,0.301,-0.0449,-1.0665,0.34,0.1478,-0.0575,-0.1028,-0.8691,0.2746,0.0332,0.1666,-2.021,49.737275,-123.098733,5.7751,224.809,140.841736,15.1,3
52:04.9,0.4045,-0.0587,-0.8808,0.3616,0.1671,0.0831,0.4208,0.4855,0.7555,0.0461,0.2018,-1.958,49.737275,-123.098733,5.7751,220.8908,140.841736,15.1,3
52:05.0,0.3383,-0.1543,-0.9695,0.2724,0.0576,0.0056,0.0395,0.5008,0.8847,0.0675,0.2135,-1.8642,49.737275,-123.098733,5.7751,215.942,140.841736,15.1,3
52:05.1,0.4055,-0.1275,-1.0646,0.3355,0.0883,-0.0907,-0.0359,-0.0111,0.5637,0.0718,0.2175,-1.7992,49.737275,-123.098733,5.7751,211.9634,140.841736,15.1,3
52:05.2,0.6055,-0.0174,-0.9207,0.5356,0.1931,0.0544,-0.0883,0.3376,0.6247,0.0715,0.2121,-1.7433,49.737249,-123.098868,6.6172,208.9942,140.841736,16.9,3
52:05.3,0.3757,-0.0759,-0.9223,0.2763,0.1338,0.0622,0.0666,0.0497,0.5436,0.0551,0.2135,-1.6885,49.737249,-123.098868,6.6172,205.844,140.841736,16.9,3
52:05.4,0.426,-0.1253,-0.9798,0.3755,0.0881,-0.0041,-0.0573,-0.025,0.5839,0.0518,0.215,-1.6231,49.737249,-123.098868,6.6172,202.4832,140.841736,16.9,3
52:05.5,0.4942,-0.0768,-0.989,0.4336,0.1457,-0.016,0.1443,0.3803,0.7562,0.0622,0.2243,-1.557,49.737249,-123.098868,6.6172,199.0933,140.841736,16.9,3
52:05.6,0.4066,-0.1663,-0.9795,0.3402,0.059,-0.0075,-0.0178,0.1028,0.5662,0.0682,0.2273,-1.4899,49.737249,-123.098868,6.6172,195.1853,140.841736,16.9,3
52:05.7,0.528,-0.0813,-0.9208,0.4511,0.1448,0.0503,-0.0338,0.3188,0.567,0.079,0.228,-1.4338,49.737249,-123.098868,6.6172,192.1306,140.841736,16.9,3
52:05.8,0.5255,-0.0628,-0.9368,0.458,0.153,0.0373,-0.2057,-0.0559,0.5966,0.0691,0.2176,-1.3708,49.737249,-123.098868,6.6172,188.8293,140.841736,16.9,3
52:05.9,0.5436,-0.0881,-0.9265,0.4862,0.1352,0.0465,0.1338,0.1143,0.5727,0.0589,0.2252,-1.3125,49.737249,-123.098868,6.6172,185.5964,140.841736,16.9,3
52:06.0,0.4808,-0.0674,-0.9653,0.4403,0.147,0.0106,-0.1907,-0.094,0.5655,0.0414,0.2161,-1.2545,49.737249,-123.098868,6.6172,182.6463,140.841736,16.9,3
52:06.1,0.4837,-0.0614,-0.8896,0.4381,0.1582,0.085,0.0089,0.1975,0.5591,0.0467,0.2213,-1.1917,49.737249,-123.098868,6.6172,179.1959,140.841736,16.9,3
52:06.2,0.5164,-0.1041,-1.0024,0.4809,0.1193,-0.0283,0.0303,-0.0801,0.5282,0.0364,0.2253,-1.138,49.737187,-123.098922,6.4304,176.2995,140.841736,14.9,3
52:06.3,0.6214,-0.0569,-0.9487,0.5913,0.1728,0.0241,-0.0081,0.0561,0.534,0.031,0.2317,-1.082,49.737187,-123.098922,6.4304,173.5387,140.841736,14.9,3
52:06.4,0.5485,-0.0773,-0.923,0.5271,0.1482,0.051,-0.0415,0.2069,0.7481,0.022,0.2274,-1.0074,49.737187,-123.098922,6.4304,169.5833,140.841736,14.9,3
52:06.5,0.413,-0.1125,-1.0095,0.4195,0.1131,-0.0353,-0.0799,-0.2471,0.6953,-0.0066,0.2275,-0.939,49.737187,-123.098922,6.4304,165.8409,140.841736,14.9,3
52:06.6,0.5314,-0.0708,-0.9243,0.5385,0.1737,0.0453,0.2748,0.3105,0.504,-0.0073,0.2471,-0.8839,49.737187,-123.098922,6.4304,162.9996,140.841736,14.9,3
52:06.7,0.482,-0.1743,-0.9834,0.4851,0.0668,-0.0129,-0.0221,0.2664,0.6052,-0.0032,0.2436,-0.8192,49.737187,-123.098922,6.4304,159.4428,140.841736,14.9,3
52:06.8,0.4935,-0.1007,-0.9158,0.4911,0.1357,0.0559,-0.0435,0.2248,0.6179,0.0025,0.2386,-0.7593,49.737187,-123.098922,6.4304,156.3902,140.841736,14.9,3
52:06.9,0.5038,-0.1035,-0.9675,0.5189,0.1238,0.0062,-0.0626,-0.0676,0.5806,-0.0156,0.2293,-0.6951,49.737187,-123.098922,6.4304,153.0221,140.841736,14.9,3
52:07.0,0.5268,-0.1158,-0.9671,0.5531,0.1005,0.0089,-0.113,0.1764,0.6989,-0.0269,0.218,-0.6308,49.737187,-123.098922,6.4304,149.7178,140.841736,14.9,3
52:07.1,0.3732,-0.1392,-0.9608,0.4178,0.0699,0.016,-0.0027,-0.1444,0.4372,-0.0457,0.2107,-0.5791,49.737187,-123.098922,6.4304,146.8705,140.841736,14.9,3
52:07.2,0.413,-0.148,-0.9479,0.448,0.06,0.0296,0.1031,0.3595,0.3568,-0.0359,0.2095,-0.5303,49.737074,-123.098881,7.3492,144.4725,140.841736,9.6,3
52:07.3,0.504,-0.1233,-0.9332,0.5247,0.0914,0.0433,0.2042,0.35,0.66,-0.0212,0.2164,-0.4623,49.737074,-123.098881,7.3492,140.9814,140.841736,9.6,3
52:07.4,0.5676,-0.1392,-0.9488,0.5806,0.0598,0.0311,-0.2197,0.1277,0.6731,-0.0133,0.2004,-0.3918,49.737074,-123.098881,7.3492,137.8467,140.841736,9.6,3
52:07.5,0.4965,-0.0879,-1.0725,0.5572,0.1061,-0.0933,-0.0347,-0.4761,0.3923,-0.062,0.1952,-0.348,49.737074,-123.098881,7.3492,134.7275,140.841736,9.6,3
52:07.6,0.4501,-0.1662,-1.0201,0.527,0.026,-0.0418,0.0089,-0.0985,0.5794,-0.0784,0.1934,-0.2916,49.737074,-123.098881,7.3492,131.8923,140.841736,9.6,3
52:07.7,0.4841,-0.0892,-0.9415,0.5458,0.1061,0.0373,0.1881,0.4234,0.6656,-0.0629,0.1965,-0.2289,49.737074,-123.098881,7.3492,128.5753,140.841736,9.6,3
52:07.8,0.4465,-0.1976,-0.927,0.5027,-0.0051,0.0527,-0.0702,0.0374,0.6429,-0.0573,0.1937,-0.1637,49.737074,-123.098881,7.3492,124.7769,140.841736,9.6,3
52:07.9,0.5465,-0.096,-0.9509,0.6058,0.0989,0.0281,0.1541,0.1163,0.5962,-0.0606,0.1962,-0.1058,49.737074,-123.098881,7.3492,121.483,140.841736,9.6,3
52:08.0,0.4848,-0.1412,-1.0661,0.5579,0.0486,-0.087,-0.0181,-0.0423,0.7857,-0.0745,0.191,-0.0376,49.737074,-123.098881,7.3492,116.8429,140.841736,9.6,3
52:08.1,0.4937,-0.1206,-0.9335,0.565,0.0635,0.0468,-0.0413,0.1805,0.5558,-0.0726,0.1851,0.0219,49.737074,-123.098881,7.3492,113.9619,140.841736,9.6,3
52:08.2,0.3721,-0.1437,-0.9453,0.4519,0.0289,0.0365,-0.0466,0.0647,0.5223,-0.0811,0.1735,0.073,49.737074,-123.098881,7.3492,111.0657,140.841736,9.6,3
52:08.3,0.4202,-0.1154,-0.9897,0.5005,0.0448,-0.0059,-0.1309,-0.0045,0.5445,-0.0815,0.1609,0.1273,49.737049,-123.098827,6.4304,107.9498,140.841736,10.9,3
52:08.4,0.4462,-0.0987,-0.9873,0.5332,0.0565,-0.0032,0.0207,0.0137,0.504,-0.0882,0.1558,0.1776,49.737049,-123.098827,6.4304,104.9986,140.841736,10.9,3
52:08.5,0.4619,-0.1077,-0.9101,0.5474,0.0437,0.0747,-0.0307,0.1525,0.608,-0.0866,0.1519,0.2337,49.737049,-123.098827,6.4304,102.0537,140.841736,10.9,3
52:08.6,0.3898,-0.1064,-0.9519,0.4746,0.0312,0.035,-0.0712,0.0536,0.5981,-0.0858,0.1381,0.2915,49.737049,-123.098827,6.4304,98.6964,140.841736,10.9,3
52:08.7,0.3849,-0.1585,-0.8986,0.462,-0.0199,0.0888,0.1113,0.2545,0.6298,-0.0779,0.139,0.351,49.737049,-123.098827,6.4304,95.4507,140.841736,10.9,3
52:08.8,0.3969,-0.1464,-1.0632,0.4719,-0.0261,-0.0733,-0.2527,-0.1656,0.6048,-0.0756,0.1206,0.4116,49.737049,-123.098827,6.4304,91.7655,140.841736,10.9,3
52:08.9,0.419,-0.0675,-0.9572,0.4951,0.0543,0.0325,0.0133,0.0801,0.4455,-0.0767,0.1221,0.457,49.737049,-123.098827,6.4304,88.8603,140.841736,10.9,3
52:09.0,0.429,-0.1337,-0.9225,0.4888,-0.0209,0.0693,0.107,0.4831,0.6605,-0.0603,0.113,0.5181,49.737049,-123.098827,6.4304,85.9705,140.841736,10.9,3
52:09.1,0.3509,-0.1564,-0.9152,0.3947,-0.051,0.0783,-0.1204,0.0322,0.6268,-0.044,0.1056,0.5819,49.737049,-123.098827,6.4304,82.1118,140.841736,10.9,3
52:09.2,0.5101,-0.1294,-0.9558,0.547,-0.0202,0.0376,0.0655,0.1218,0.5791,-0.0372,0.1094,0.6391,49.737048,-123.098665,6.4801,78.7846,140.841736,6,3
52:09.3,0.4264,-0.1552,-0.9366,0.453,-0.0529,0.0578,-0.0137,0.2669,0.696,-0.0268,0.1024,0.7056,49.737048,-123.098665,6.4801,75.1971,140.841736,6,3
52:09.4,0.4019,-0.1764,-0.9809,0.4296,-0.082,0.0143,-0.0946,-0.0076,0.521,-0.0278,0.0945,0.7608,49.737048,-123.098665,6.4801,71.643,140.841736,6,3
52:09.5,0.4789,-0.1259,-0.9465,0.5024,-0.0311,0.0328,0.0753,0.1258,0.4446,-0.0223,0.0981,0.805,49.737048,-123.098665,6.4801,68.8585,140.841736,6,3
52:09.6,0.4411,-0.1121,-0.9345,0.4538,-0.0223,0.0614,-0.1043,0.2221,0.557,-0.0127,0.0899,0.8633,49.737048,-123.098665,6.4801,65.9239,140.841736,6,3
52:09.7,0.436,-0.1109,-0.9233,0.4345,-0.0281,0.0732,-0.0787,0.1397,0.6187,0.0015,0.0828,0.9258,49.737048,-123.098665,6.4801,62.4378,140.841736,6,3
52:09.8,0.4508,-0.1408,-0.9519,0.4409,-0.0669,0.0303,0.0644,0.1705,0.6209,0.0025,0.0872,0.9842,49.737048,-123.098665,6.4801,59.1593,140.841736,6,3
52:09.9,0.4397,-0.1525,-0.9796,0.4305,-0.0703,0.017,-0.1428,0.0162,0.6375,0.0092,0.0823,1.0481,49.737048,-123.098665,6.4801,55.4675,140.841736,6,3
52:10.0,0.4904,-0.1102,-0.9648,0.4886,-0.0249,0.0316,0.1104,0.0869,0.5341,0.0018,0.0854,1.1015,49.737048,-123.098665,6.4801,52.1187,140.841736,6,3
52:10.1,0.4845,-0.1723,-0.9534,0.4861,-0.0867,0.043,0.0313,0.0719,0.5651,-0.0016,0.0857,1.1552,49.737048,-123.098665,6.4801,49.2096,140.841736,6,3
52:10.2,0.4068,-0.1102,-0.9072,0.3917,-0.0213,0.0887,0.011,0.2664,0.6063,0.0151,0.089,1.2153,49.737065,-123.098635,6.4801,45.9094,140.841736,10.9,3
52:10.3,0.4316,-0.1331,-0.9661,0.4034,-0.0476,0.0298,-0.0585,0.1617,0.6647,0.0283,0.0857,1.2808,49.737065,-123.098635,6.4801,42.2377,140.841736,10.9,3
52:10.4,0.4792,-0.131,-0.9854,0.4312,-0.0436,0.0096,0.0056,0.3181,0.6652,0.0482,0.0875,1.348,49.737065,-123.098635,6.4801,38.3696,140.841736,10.9,3
52:10.5,0.4437,-0.1455,-0.9855,0.3904,-0.0575,0.0092,-0.0071,0.0742,0.5352,0.0536,0.0881,1.4024,49.737065,-123.098635,6.4801,34.8122,140.841736,10.9,3
52:10.6,0.4935,-0.1195,-0.8921,0.4305,-0.0294,0.1018,-0.0103,0.1562,0.5376,0.0633,0.0902,1.4541,49.737065,-123.098635,6.4801,31.7551,140.841736,10.9,3
52:10.7,0.4447,-0.1418,-0.9541,0.3763,-0.0527,0.0396,-0.0339,0.1152,0.6186,0.0688,0.0892,1.5153,49.737065,-123.098635,6.4801,28.0767,140.841736,10.9,3
52:10.8,0.4035,-0.1336,-0.9971,0.3281,-0.0377,-0.0045,0.0867,0.2553,0.6714,0.0758,0.096,1.5769,49.737065,-123.098635,6.4801,24.4273,140.841736,10.9,3
52:10.9,0.4117,-0.1951,-0.9574,0.3328,-0.0928,0.0343,0.075,0.1212,0.6645,0.0793,0.1025,1.6404,49.737065,-123.098635,6.4801,19.5861,140.841736,10.9,3
52:11.0,0.4719,-0.1709,-1.0366,0.381,-0.0641,-0.0465,-0.0253,0.1347,0.5663,0.0916,0.107,1.7005,49.737065,-123.098635,6.4801,15.8828,140.841736,10.9,3
52:11.1,0.5151,-0.1649,-0.849,0.4007,-0.0487,0.1377,0.0484,0.4144,0.5908,0.1154,0.1164,1.7574,49.737065,-123.098635,6.4801,12.4015,140.841736,10.9,3
52:11.2,0.4623,-0.1804,-0.9892,0.3586,-0.0638,-0.0015,0.0174,-0.0388,0.5657,0.1046,0.1169,1.8137,49.737065,-123.098635,6.4801,8.9393,140.841736,10.9,3
52:11.3,0.464,-0.212,-0.9115,0.3474,-0.079,0.0728,0.1294,0.3276,0.6685,0.1179,0.1333,1.8765,49.737115,-123.098587,5.8406,5.1846,140.841736,13.1,3
52:11.4,0.4574,-0.2475,-0.9985,0.3523,-0.1052,-0.0328,-0.1193,-0.0797,0.6446,0.1056,0.132,1.9369,49.737115,-123.098587,5.8406,1.3696,140.841736,13.1,3
52:11.5,0.4085,-0.2365,-1.0093,0.3045,-0.0997,-0.0242,-0.0348,0.0668,0.5383,0.1052,0.1372,1.9974,49.737115,-123.098587,5.8406,357.7768,140.841736,13.1,3
52:11.6,0.419,-0.2428,-0.8881,0.2986,-0.1014,0.0945,0.0045,0.4119,0.6549,0.122,0.1419,2.0587,49.737115,-123.098587,5.8406,354.2287,140.841736,13.1,3
52:11.7,0.4334,-0.2086,-0.8802,0.3065,-0.0735,0.1025,-0.1512,0.034,0.5115,0.1284,0.1355,2.1145,49.737115,-123.098587,5.8406,351.3872,140.841736,13.1,3
52:11.8,0.3813,-0.2315,-0.9731,0.2611,-0.0925,0.0099,-0.0252,0.004,0.5317,0.1217,0.1395,2.1657,49.737115,-123.098587,5.8406,348.3726,140.841736,13.1,3
52:11.9,0.4421,-0.2363,-0.9042,0.3113,-0.0907,0.0765,-0.0776,0.207,0.5741,0.1326,0.1461,2.2223,49.737115,-123.098587,5.8406,345.0628,140.841736,13.1,3
52:12.0,0.417,-0.2348,-0.8935,0.2868,-0.09,0.0873,-0.069,0.0871,0.5213,0.1319,0.1454,2.2751,49.737115,-123.098587,5.8406,341.6612,140.841736,13.1,3
52:12.1,0.3739,-0.2045,-0.9807,0.2526,-0.0604,0.0014,-0.0443,-0.0465,0.4461,0.123,0.1446,2.3202,49.737115,-123.098587,5.8406,338.8184,140.841736,13.1,3
52:12.2,0.4252,-0.2317,-0.8781,0.2895,-0.085,0.1017,-0.0637,0.4017,0.5833,0.1376,0.1472,2.3765,49.737133,-123.098582,5.8406,335.7687,140.841736,14.2,3
52:12.3,0.3888,-0.2372,-0.9183,0.2536,-0.0918,0.0618,-0.1139,0.026,0.5916,0.1371,0.1459,2.4354,49.737133,-123.098582,5.8406,332.2054,140.841736,14.2,3
52:12.4,0.4427,-0.1958,-0.8742,0.3042,-0.0522,0.1057,-0.1212,0.1182,0.4841,0.1405,0.1442,2.4854,49.737133,-123.098582,5.8406,328.9132,140.841736,14.2,3
52:12.5,0.3516,-0.2291,-0.9622,0.245,-0.0855,0.0217,-0.0251,-0.3912,0.4214,0.108,0.1441,2.5287,49.737133,-123.098582,5.8406,326.2465,140.841736,14.2,3
52:12.6,0.3617,-0.2161,-0.8269,0.2239,-0.0619,0.1515,0.0782,0.6311,0.6471,0.14,0.1548,2.5896,49.737133,-123.098582,5.8406,323.0726,140.841736,14.2,3
52:12.7,0.3105,-0.213,-0.9051,0.179,-0.0562,0.0737,-0.0561,-0.1859,0.4456,0.1336,0.1574,2.6379,49.737133,-123.098582,5.8406,319.7906,140.841736,14.2,3
52:12.8,0.3885,-0.2237,-0.9107,0.2493,-0.0575,0.0656,0.0794,0.3092,0.5541,0.1416,0.167,2.6921,49.737133,-123.098582,5.8406,316.7209,140.841736,14.2,3
52:12.9,0.3865,-0.1809,-0.9939,0.253,-0.0183,-0.0163,-0.1351,-0.0978,0.4801,0.1357,0.1634,2.7431,49.737133,-123.098582,5.8406,313.6159,140.841736,14.2,3
52:13.0,0.3294,-0.2007,-0.9766,0.2002,-0.032,0.0006,0.0089,0.108,0.5695,0.1315,0.1695,2.7997,49.737133,-123.098582,5.8406,310.3858,140.841736,14.2,3
52:13.1,0.4137,-0.1811,-0.9056,0.2737,-0.0111,0.0699,-0.0883,0.2601,0.5945,0.1426,0.1708,2.8591,49.737133,-123.098582,5.8406,307.0067,140.841736,14.2,3
52:13.2,0.3798,-0.2031,-0.9189,0.2476,-0.03,0.0571,0.0005,-0.0233,0.4814,0.1346,0.174,2.9109,49.737133,-123.098582,5.8406,303.6215,140.841736,14.2,3
52:13.3,0.3852,-0.1736,-0.9221,0.2528,0.0009,0.0536,-0.0861,0.003,0.5328,0.1348,0.1753,2.9626,49.737244,-123.098622,5.5293,300.7611,140.841736,17.8,3
52:13.4,0.3826,-0.1785,-0.9086,0.2391,-0.0015,0.0651,-0.0403,0.279,0.6341,0.1464,0.178,3.0249,49.737244,-123.098622,5.5293,297.2383,140.841736,17.8,3
52:13.5,0.3765,-0.1685,-0.9785,0.2213,0.0098,-0.0069,-0.0936,0.1751,0.5825,0.1584,0.1792,3.0836,49.737244,-123.098622,5.5293,293.6966,140.841736,17.8,3
52:13.6,0.4768,-0.1333,-0.8764,0.3037,0.0488,0.0915,-0.0818,0.3424,0.5447,0.1769,0.1831,3.138,49.737244,-123.098622,5.5293,290.4537,140.841736,17.8,3
52:13.7,0.42,-0.1556,-0.9458,0.2593,0.0219,0.0194,-0.0263,0.0293,0.5724,0.17,0.1845,-3.0938,49.737244,-123.098622,5.5293,287.3337,140.841736,17.8,3
52:13.8,0.4046,-0.1602,-0.8875,0.2283,0.0354,0.0772,0.0377,0.1694,0.6177,0.1807,0.1968,-3.0301,49.737244,-123.098622,5.5293,283.9349,140.841736,17.8,3
52:13.9,0.4148,-0.1696,-0.9844,0.2503,0.0375,-0.0201,0.0122,-0.1649,0.4863,0.169,0.2086,-2.9782,49.737244,-123.098622,5.5293,280.3874,140.841736,17.8,3
52:14.0,0.4619,-0.1597,-0.8628,0.2907,0.0615,0.0973,0.0548,0.4176,0.594,0.1764,0.2231,-2.9247,49.737244,-123.098622,5.5293,277.6975,140.841736,17.8,3
52:14.1,0.4022,-0.1802,-1.0312,0.2476,0.0387,-0.0677,-0.1406,-0.2262,0.5907,0.1591,0.2206,-2.8656,49.737244,-123.098622,5.5293,274.2528,140.841736,17.8,3
52:14.2,0.498,-0.1508,-0.9037,0.3425,0.0798,0.0569,0.0101,0.1843,0.4565,0.1605,0.2327,-2.8183,49.737244,-123.098622,5.5293,271.1933,140.841736,17.8,3
52:14.3,0.4366,-0.1378,-1.0043,0.2848,0.0937,-0.0434,-0.1171,0.0642,0.6163,0.1567,0.2337,-2.7619,49.737265,-123.098673,5.5293,268.3453,140.841736,15.8,3
52:14.4,0.4478,-0.1765,-0.8534,0.2714,0.0636,0.1012,-0.0392,0.4866,0.6242,0.1827,0.2425,-2.7001,49.737265,-123.098673,5.5293,264.7723,140.841736,15.8,3
52:14.5,0.4651,-0.1526,-0.9951,0.2998,0.0856,-0.038,-0.1139,-0.0494,0.571,0.171,0.2405,-2.6454,49.737265,-123.098673,5.5293,261.4704,140.841736,15.8,3
52:14.6,0.5451,-0.124,-0.994,0.3889,0.1196,-0.0367,-0.0006,0.2416,0.4877,0.1617,0.246,-2.597,49.737265,-123.098673,5.5293,258.5738,140.841736,15.8,3
52:14.7,0.4662,-0.1496,-0.9062,0.3155,0.0958,0.0515,-0.0777,0.1609,0.6316,0.1561,0.2479,-2.5366,49.737265,-123.098673,5.5293,255.6241,140.841736,15.8,3
52:14.8,0.4489,-0.1791,-0.9034,0.2967,0.0734,0.0522,-0.0328,0.1164,0.6015,0.158,0.2552,-2.4708,49.737265,-123.098673,5.5293,250.8057,140.841736,15.8,3
52:14.9,0.528,-0.1536,-0.926,0.3805,0.105,0.0286,-0.0157,0.1261,0.5781,0.1533,0.2615,-2.4142,49.737265,-123.098673,5.5293,247.5453,140.841736,15.8,3
52:15.0,0.4913,-0.1346,-0.9839,0.3585,0.1242,-0.0272,-0.1108,0.0703,0.659,0.1379,0.2619,-2.35,49.737265,-123.098673,5.5293,243.9655,140.841736,15.8,3
52:15.1,0.5092,-0.1221,-0.9693,0.3798,0.1404,-0.0131,-0.0488,0.1109,0.6335,0.1345,0.2656,-2.2883,49.737265,-123.098673,5.5293,240.4858,140.841736,15.8,3
52:15.2,0.4957,-0.115,-0.9131,0.3628,0.1412,0.0301,0.0142,0.194,0.6061,0.1262,0.2707,-2.229,49.737265,-123.098673,5.5293,237.0389,140.841736,15.8,3
52:15.3,0.5132,-0.1216,-0.9713,0.3945,0.1466,-0.0152,-0.1215,0.1018,0.7232,0.1236,0.2715,-2.1503,49.737275,-123.098733,5.5293,232.8599,140.841736,12.9,3
52:15.4,0.5916,-0.0757,-0.9581,0.4774,0.195,-0.0022,-0.0839,0.1853,0.479,0.1189,0.2741,-2.097,49.737275,-123.098733,5.5293,229.5025,140.841736,12.9,3
52:15.5,0.4663,-0.1039,-0.9821,0.4008,0.1746,-0.0239,0.0239,-0.3969,0.4855,0.0682,0.2822,-2.0542,49.737275,-123.098733,5.5293,228.2628,140.841736,12.9,3
52:15.6,0.4077,-0.1221,-0.955,0.3325,0.1586,0.0019,-0.0587,0.4812,0.8057,0.0784,0.2845,-1.9747,49.737275,-123.098733,5.5293,223.3005,140.841736,12.9,3
52:15.7,0.4703,-0.1052,-0.96,0.3845,0.1741,-0.0036,-0.1213,0.1969,0.4993,0.0894,0.283,-1.9124,49.737275,-123.098733,5.5293,219.5167,140.841736,12.9,3
52:15.8,0.4673,-0.1633,-1.0849,0.4146,0.115,-0.1258,-0.0242,-0.1657,0.6091,0.0549,0.282,-1.8498,49.737275,-123.098733,5.5293,216.1592,140.841736,12.9,3
52:15.9,0.5883,-0.0916,-0.951,0.5252,0.1819,0.0088,-0.1291,0.358,0.7614,0.0657,0.2771,-1.7754,49.737275,-123.098733,5.5293,212.4418,140.841736,12.9,3
52:16.0,0.4661,-0.1085,-0.8648,0.4339,0.179,0.0792,-0.0266,0.1441,0.7522,0.0616,0.2777,-1.7019,49.737275,-123.098733,5.5293,207.9234,140.841736,12.9,3
52:16.1,0.4465,-0.1578,-0.9724,0.4092,0.1291,-0.0047,0.1102,0.0679,0.6846,0.0498,0.2849,-1.6332,49.737275,-123.098733,5.5293,204.1992,140.841736,12.9,3
52:16.2,0.502,-0.1119,-0.9411,0.459,0.1686,0.0178,-0.0028,0.1242,0.5428,0.0448,0.2843,-1.5639,49.737275,-123.098733,5.5293,200.4956,140.841736,12.9,3
52:16.3,0.4375,-0.1718,-1.0634,0.4065,0.1022,-0.1022,-0.113,0.1264,0.7073,0.0323,0.2776,-1.4946,49.737249,-123.098869,5.8713,196.7955,140.841736,14.8,3
52:16.4,0.5794,-0.0844,-0.9051,0.5262,0.1863,0.0561,-0.0915,0.4985,0.59,0.0553,0.2741,-1.4354,49.737249,-123.098869,5.8713,193.6069,140.841736,14.8,3
52:16.5,0.4827,-0.0562,-0.9422,0.4414,0.2034,0.0226,-0.1405,-0.096,0.5356,0.0428,0.2627,-1.3767,49.737249,-123.098869,5.8713,190.3589,140.841736,14.8,3
52:16.6,0.535,-0.1072,-0.9173,0.4811,0.1538,0.0392,0.0324,0.2526,0.5967,0.0414,0.2658,-1.3217,49.737249,-123.098869,5.8713,187.3984,140.841736,14.8,3
52:16.7,0.5159,-0.0954,-0.9152,0.4719,0.1603,0.0506,-0.1226,0.1456,0.703,0.0455,0.2585,-1.2478,49.737249,-123.098869,5.8713,183.7528,140.841736,14.8,3
52:16.8,0.5473,-0.0685,-0.9568,0.4974,0.183,0.0097,-0.0446,0.3471,0.6269,0.0515,0.2542,-1.1816,49.737249,-123.098869,5.8713,180.8767,140.841736,14.8,3
52:16.9,0.5339,-0.1492,-0.9007,0.4852,0.1033,0.0656,-0.0232,0.164,0.6401,0.0504,0.2553,-1.1193,49.737249,-123.098869,5.8713,177.6729,140.841736,14.8,3
