Timestamp,accelX(g),accelY(g),accelZ(g),accelUserX(g),accelUserY(g),accelUserZ(g),gyroX(rad/s),gyroY(rad/s),gyroZ(rad/s),Roll(rads),Pitch(rads),Yaw(rads),Lat,Long,Speed(m/s),TrueHeading,Alt(m), HorizontalAccuracy(m), VerticalAccuracy(m),ActivityType,ActivityConfidence,Pressure(kilopascals),RelativeAltitude(meters),magX(µT),magY(µT),magZ(µT),calMagX,calMagY,calMagZ
06-Feb-2019 10:35:59.835, 0.0107,-0.2705,-0.9197,-0.1181,-0.0398, 0.0225,-0.3894,-0.7736,-0.2462, 0.1074, 0.2349,-1.3772,50.104394,-122.940364, 0.0499, 141.3597, 843.170166, 6.0, 3.0,Walking,High, 92.3366,-0.6157,-78.5401,-111.5601,-548.0009, 0.0000, 0.0000, 0.0000
06-Feb-2019 10:35:59.910,-0.1848,-0.2069,-0.8351,-0.2274, 0.0088, 0.0831,-1.1834,-0.4172,-0.0876, 0.0551, 0.2074,-1.3844,50.104394,-122.940364, 0.0499, 141.3597, 843.170166, 6.0, 3.0,Walking,High, 92.3366,-0.6157,-80.6429,-111.0500,-547.6118, 0.0000, 0.0000, 0.0000
06-Feb-2019 10:36:00.011,-0.1059,-0.1815,-0.9620,-0.0669,-0.0280, 0.0254,-0.1856, 0.7398, 1.3405,-0.0395, 0.1541,-1.3646,50.104394,-122.940364, 0.0499, 142.4063, 843.170166, 6.0, 3.0,Walking,High, 92.3366,-0.6157,-83.5804,-108.9701,-546.6102, 0.0000, 0.0000, 0.0000
06-Feb-2019 10:36:00.109,-0.0728,-0.2431,-0.8598,-0.0530,-0.1373, 0.0630, 0.6503,-1.3078, 0.8606,-0.0239, 0.1440,-1.2562,50.104394,-122.940364, 0.0499, 135.8195, 843.170166, 6.0, 3.0,Walking,High, 92.3366,-0.6157,-84.6557,-105.6803,-547.7128, 0.0000, 0.0000, 0.0000
06-Feb-2019 10:36:00.208,-0.2868,-0.2736,-0.7950,-0.0704,-0.0752, 0.1398, 0.5825,-1.8928, 0.3319,-0.1976, 0.2104,-1.1741,50.104395,-122.940368, 0.1159, 130.1513, 843.238403, 6.0, 3.0,Walking,High, 92.3366,-0.6157,-90.1214,-105.7879,-543.4833, 0.0000, 0.0000, 0.0000
06-Feb-2019 10:36:00.307,-0.3541,-0.2256,-0.8336,-0.0665, 0.0022, 0.1007, 0.4589,-0.8843, 0.0859,-0.3195, 0.2309,-1.1381,50.104395,-122.940368, 0.1159, 128.7553, 843.238403, 6.0, 3.0,Walking,High, 92.3366,-0.6157,-95.4379,-105.6684,-538.8035, 0.0000, 0.0000, 0.0000
06-Feb-2019 10:36:00.407,-0.3721,-0.2208,-0.8709,-0.0985, 0.0595, 0.0106, 0.5853, 1.0716,-0.1486,-0.3236, 0.3019,-1.1119,50.104395,-122.940368, 0.1159, 127.4905, 843.238403, 6.0, 3.0,Walking,High, 92.3366,-0.6157,-96.1751,-106.9450,-536.8558, 0.0000, 0.0000, 0.0000
06-Feb-2019 10:36:00.506,-0.3552,-0.2926,-0.8600,-0.0711, 0.0787, 0.0209, 1.0113,-0.0024,-0.0429,-0.3164, 0.3848,-1.1020,50.104395,-122.940368, 0.1159, 126.4897, 843.238403, 6.0, 3.0,Walking,High, 92.3366,-0.6157,-94.5793,-109.8577,-536.6541, 0.0000, 0.0000, 0.0000
06-Feb-2019 10:36:00.605,-0.2758,-0.3217,-0.7755,-0.0512, 0.0232, 0.0377, 0.6227, 0.3371,-0.6557,-0.2503, 0.4681,-1.1165,50.104395,-122.940368, 0.1159, 126.4897, 843.238403, 6.0, 3.0,Walking,High, 92.3366,-0.6157,-92.9893,-112.1720,-537.2745, 0.0000, 0.0000, 0.0000
06-Feb-2019 10:36:00.704,-0.1913,-0.4293,-0.9715, 0.0361, 0.1852,-0.0178, 0.0033, 0.6515, 0.5573,-0.2120, 0.5002,-1.1452,50.104395,-122.940368, 0.1159, 129.2711, 843.238403, 6.0, 3.0,Walking,High, 92.3366,-0.6157,-90.7185,-115.2305,-537.5272, 0.0000, 0.0000, 0.0000
06-Feb-2019 10:36:00.804,-0.2808,-0.5309,-0.9358,-0.0455, 0.0157,-0.0757, 0.8865, 0.0179, 0.5861,-0.2516, 0.5438,-1.0599,50.104395,-122.940368, 0.1159, 125.2627, 843.238403, 6.0, 3.0,Walking,High, 92.3366,-0.6157,-91.2492,-114.2584,-536.9945, 0.0000, 0.0000, 0.0000
06-Feb-2019 10:36:00.903,-0.1541,-0.5844,-0.6847, 0.0015,-0.0311, 0.0580, 0.0075, 0.9623,-0.0281,-0.1997, 0.5793,-1.0326,50.104395,-122.940368, 0.1159, 122.8005, 843.238403, 6.0, 3.0,Walking,High, 92.3366,-0.6157,-90.8673,-115.1549,-536.7010, 0.0000, 0.0000, 0.0000
06-Feb-2019 10:36:01.002,-0.1650,-0.5603,-0.9031,-0.0706,-0.0186,-0.0379,-0.3230, 0.8483, 0.4175,-0.1075, 0.5443,-1.0081,50.104395,-122.940368, 0.1159, 121.6787, 843.238403, 6.0, 3.0,Walking,High, 92.3366,-0.6157,-88.7798,-114.2454,-539.7830, 0.0000, 0.0000, 0.0000
06-Feb-2019 10:36:01.101,-0.2088,-0.5882,-0.7581,-0.1908,-0.0916, 0.0394,-0.3411, 0.2504,-0.4231,-0.0625, 0.5288,-0.9863,50.104395,-122.940368, 0.1159, 119.3720, 843.238403, 6.0, 3.0,Walking,High, 92.3366,-0.6157,-87.2934,-113.0394,-542.3351, 0.0000, 0.0000, 0.0000
06-Feb-2019 10:36:01.200,-0.2977,-0.5054,-0.7895,-0.3041, 0.0206, 0.1006,-0.2255, 0.3739,-0.3083,-0.0720, 0.5217,-1.0057,50.104395,-122.940367, 0.2231, 120.4151, 843.186401, 6.0, 3.0,Walking,High, 92.3366,-0.6157,-87.2172,-113.1887,-542.2614, 0.0000, 0.0000, 0.0000
06-Feb-2019 10:36:01.300, 0.0031,-0.8545,-0.8348,-0.0076,-0.2857, 0.0601,-1.7461, 1.1130, 0.5270,-0.0966, 0.4884,-1.0183,50.104395,-122.940367, 0.2231, 121.4528, 843.186401, 6.0, 3.0,Walking,High, 92.3366,-0.6157,-87.9726,-112.3690,-542.1030, 0.0000, 0.0000, 0.0000
06-Feb-2019 10:36:01.401,-0.2527,-0.3604,-0.8540,-0.0840, 0.0156, 0.0757, 0.1775,-1.7019, 0.4101,-0.1544, 0.3894,-0.9652,50.104395,-122.940367, 0.2231, 118.9590, 843.186401, 6.0, 3.0,Walking,High, 92.3366,-0.6157,-88.5344,-107.7275,-544.2518, 0.0000, 0.0000, 0.0000
06-Feb-2019 10:36:02.461, 0.1722,-1.5158,-0.3666,-0.3283,-0.0782,-0.2846, 8.1681,-0.9374, 0.6250, 1.5982, 0.7286,-2.4459,50.104395,-122.940367, 0.2231, 117.6874, 843.186401, 6.0, 3.0,Walking,High, 92.3366,-0.6157,-94.3191,-122.1314,-524.4919, 0.0000, 0.0000, 0.0000
06-Feb-2019 10:36:02.475, 0.1722,-1.5158,-0.3666,-0.3283,-0.0782,-0.2846, 3.6943, 3.7370,-8.2416, 1.5982, 0.7286,-2.4459,50.104395,-122.940367, 0.2231, 127.5241, 843.186401, 6.0, 3.0,Walking,High, 92.3366,-0.6157,-48.0634,-136.3030,-508.7672, 0.0000, 0.0000, 0.0000
06-Feb-2019 10:36:02.520, 0.8306,-0.7725,-0.2069,-0.2947,-0.0771,-0.5570,-0.6652, 0.3594,-0.8464, 1.7960, 0.5245,-2.4755,50.104395,-122.940367, 0.2231, 111.7731, 843.186401, 6.0, 3.0,Walking,High, 92.3366,-0.6157,-40.8037,-132.4116,-502.7876, 0.0000, 0.0000, 0.0000
06-Feb-2019 10:36:02.580, 0.8306,-0.7725,-0.2069, 0.0166, 0.2992, 0.4036,-0.6652, 0.3594,-0.8464, 1.8308, 0.5879,-2.4467,50.104394,-122.940367, 0.0888, 197.4247, 843.193237, 6.0, 3.0,Walking,High, 92.3366,-0.6157,-43.1921,-134.3818,-503.9094, 0.0000, 0.0000, 0.0000
06-Feb-2019 10:36:02.609, 0.7231,-0.1246, 0.4617,-0.1601, 0.4223, 0.0284,-0.0575,-0.7762, 0.1965, 1.8090, 0.5981,-2.4459,50.104394,-122.940367, 0.0888, 206.5098, 843.193237, 6.0, 3.0,Walking,High, 92.3366,-0.6157,-43.3423,-134.6851,-505.0351, 0.0000, 0.0000, 0.0000
06-Feb-2019 10:36:02.651, 0.7231,-0.1246, 0.4617,-0.1523, 0.4999, 0.2317,-0.0575,-0.7762, 0.1965, 1.7868, 0.6231,-2.4480,50.104394,-122.940367, 0.0888, 209.9979, 843.193237, 6.0, 3.0,Walking,High, 92.3366,-0.6157,-44.3154,-134.9927,-505.1813, 0.0000, 0.0000, 0.0000
06-Feb-2019 10:36:02.671, 0.7231,-0.1246, 0.4617,-0.0587, 0.3840, 0.0996,-0.0575,-0.7762, 0.1965, 1.7933, 0.6417,-2.4611,50.104394,-122.940367, 0.0888, 207.2522, 843.193237, 6.0, 3.0,Walking,High, 92.3366,-0.6157,-44.3154,-134.9927,-505.1813, 0.0000, 0.0000, 0.0000
06-Feb-2019 10:36:02.681, 0.7231,-0.1246, 0.4617,-0.0537, 0.3007, 0.0130,-0.0575,-0.7762, 0.1965, 1.7914, 0.6526,-2.4650,50.104394,-122.940367, 0.0888, 202.5107, 843.193237, 6.0, 3.0,Walking,High, 92.3366,-0.6157,-44.3154,-134.9927,-505.1813, 0.0000, 0.0000, 0.0000
06-Feb-2019 10:36:02.695, 0.7678,-0.5786, 0.2025, 0.0017, 0.0414, 0.0333,-0.0372,-0.3872, 1.0911, 1.7882, 0.6688,-2.4691,50.104394,-122.940367, 0.0888, 203.7880, 843.193237, 6.0, 3.0,Walking,High, 92.3366,-0.6157,-46.3350,-135.6823,-504.8736, 0.0000, 0.0000, 0.0000
06-Feb-2019 10:36:02.709, 0.7678,-0.5786, 0.2025, 0.1209,-0.0596, 0.0926,-0.0372,-0.3872, 1.0911, 1.7882, 0.6773,-2.4721,50.104394,-122.940367, 0.0888, 203.7880, 843.193237, 6.0, 3.0,Walking,High, 92.3366,-0.6157,-46.3350,-135.6823,-504.8736, 0.0000, 0.0000, 0.0000
06-Feb-2019 10:36:02.735, 0.7678,-0.5786, 0.2025, 0.3413,-0.1840, 0.0759,-0.0372,-0.3872, 1.0911, 1.7895, 0.6791,-2.4783,50.104394,-122.940367, 0.0888, 203.7880, 843.193237, 6.0, 3.0,Walking,High, 92.3366,-0.6157,-46.9328,-135.9868,-504.8718, 0.0000, 0.0000, 0.0000
06-Feb-2019 10:36:02.757, 0.7678,-0.5786, 0.2025, 0.2560,-0.1165,-0.0148,-0.0372,-0.3872, 1.0911, 1.7807, 0.6629,-2.4757,50.104394,-122.940367, 0.0888, 203.7880, 843.193237, 6.0, 3.0,Walking,High, 92.3452,-1.3872,-46.9328,-135.9868,-504.8718, 0.0000, 0.0000, 0.0000
06-Feb-2019 10:36:02.776, 0.7678,-0.5786, 0.2025, 0.1094,-0.0439,-0.1006,-0.0372,-0.3872, 1.0911, 1.7703, 0.6428,-2.4711,50.104394,-122.940367, 0.0888, 203.7880, 843.193237, 6.0, 3.0,Walking,High, 92.3452,-1.3872,-45.5103,-135.6764,-505.0281, 0.0000, 0.0000, 0.0000
06-Feb-2019 10:36:02.792, 0.9253,-0.6417, 0.0053, 0.0878,-0.0360,-0.1142, 0.0001,-0.1262,-1.0613, 1.7655, 0.6277,-2.4681,50.104394,-122.940367, 0.0888, 203.7880, 843.193237, 6.0, 3.0,Walking,High, 92.3452,-1.3872,-45.5103,-135.6764,-505.0281, 0.0000, 0.0000, 0.0000
06-Feb-2019 10:36:02.890, 0.8629,-0.4343, 0.4299,-0.0847,-0.0053, 0.1570, 0.6362, 0.8696,-1.6742, 1.7778, 0.4629,-2.4416,50.104394,-122.940367, 0.0888, 202.6814, 843.193237, 6.0, 3.0,Walking,High, 92.3452,-1.3872,-36.6862,-131.5573,-503.5560, 0.0000, 0.0000, 0.0000
06-Feb-2019 10:36:02.989, 0.7841,-0.3028, 0.2874,-0.1049,-0.0485, 0.1255, 1.0806, 0.5318,-0.5412, 1.8319, 0.3393,-2.5108,50.104394,-122.940367, 0.0888, 204.5364, 843.193237, 6.0, 3.0,Walking,High, 92.3452,-1.3872,-33.4735,-128.9019,-500.4104, 0.0000, 0.0000, 0.0000
06-Feb-2019 10:36:03.252, 0.8147,-1.6187, 0.2213, 0.3096,-0.4592, 0.3247,-0.0943, 2.2382, 6.3144, 2.5181, 1.1303, 2.9103,50.104393,-122.940364, 0.0110, 113.6932, 843.197876, 6.0, 3.0,Walking,High, 92.3452,-1.3872,-76.0355,-132.5084,-494.0443, 0.0000, 0.0000, 0.0000
06-Feb-2019 10:36:03.259, 0.8147,-1.6187, 0.2213, 0.3144,-0.4546, 0.3334,-0.0943, 2.2382, 6.3144, 2.5153, 1.1411, 2.9083,50.104393,-122.940364, 0.0110, 113.6932, 843.197876, 6.0, 3.0,Walking,High, 92.3452,-1.3872,-76.0355,-132.5084,-494.0443, 0.0000, 0.0000, 0.0000
06-Feb-2019 10:36:03.287,-0.1438,-1.0605, 0.7919,-0.2326, 0.0489, 0.4851, 0.3573, 0.0327, 1.2152, 2.5509, 1.1735, 2.8593,50.104393,-122.940364, 0.0110, 113.6932, 843.197876, 6.0, 3.0,Walking,High, 92.3452,-1.3872,-77.6140,-132.2217,-494.7842, 0.0000, 0.0000, 0.0000
06-Feb-2019 10:36:03.386, 0.1308,-1.1933, 0.1459,-0.0184,-0.3496,-0.2950,-1.2283, 0.5392,-0.2545, 2.7992, 1.1876, 2.6076,50.104393,-122.940364, 0.0110, 114.8152, 843.197876, 6.0, 3.0,Walking,High, 92.3452,-1.3872,-81.5304,-129.3977,-493.0986, 0.0000, 0.0000, 0.0000
06-Feb-2019 10:36:03.486,-0.6561, 0.3292, 0.1742,-0.7653, 1.3778,-0.2549,-1.1112,-0.7582, 2.6020, 2.4956, 1.2208, 2.8898,50.104393,-122.940364, 0.0110, 113.7852, 843.197876, 6.0, 3.0,Walking,High, 92.3452,-1.3872,-78.7423,-132.1580,-496.2027, 0.0000, 0.0000, 0.0000
06-Feb-2019 10:36:03.585, 0.0621,-0.9458, 0.3616, 0.1648,-0.3186, 0.0414, 0.4191, 0.1417,-0.7466, 3.0143, 1.2707, 2.3895,50.104393,-122.940364, 0.0110, 113.5882, 843.197876, 6.0, 3.0,Walking,High, 92.3452,-1.3872,-85.2152,-128.9822,-496.5262, 0.0000, 0.0000, 0.0000
06-Feb-2019 10:36:03.684, 0.1418,-1.4914, 0.2344,-0.0777,-0.4353,-0.1250,-1.6102,-0.0928,-0.6985, 2.7387, 1.2473, 2.6459,50.104393,-122.940364, 0.0110, 114.2380, 843.197876, 6.0, 3.0,Walking,High, 92.3452,-1.3872,-81.0004,-130.9747,-496.1094, 0.0000, 0.0000, 0.0000
06-Feb-2019 10:36:03.783, 0.1105,-0.0167, 0.3589, 0.1462, 0.7702, 0.2605, 2.6213,-0.2373,-1.3179, 2.3674, 1.2467, 2.9346,50.104393,-122.940364, 0.0110, 117.8797, 843.197876, 6.0, 3.0,Walking,High, 92.3452,-1.3872,-77.6130,-133.0515,-497.1884, 0.0000, 0.0000, 0.0000
06-Feb-2019 10:36:03.884,-0.0334,-2.9091, 0.2668,-0.2011,-1.5017,-0.1282,-1.4035, 2.3196, 4.2424, 2.8599, 1.3290, 2.4936,50.104393,-122.940364, 0.0110, 117.8325, 843.197876, 6.0, 3.0,Walking,High, 92.3452,-1.3872,-78.5155,-132.0789,-495.0036, 0.0000, 0.0000, 0.0000
06-Feb-2019 10:36:03.982,-0.2359,-0.6773, 0.1483,-0.0742, 0.4218, 0.1218,-1.5715, 1.8008, 0.6495,-1.9686, 1.4397, 1.2909,50.104393,-122.940364, 0.0110, 103.2990, 843.197876, 6.0, 3.0,Walking,High, 92.3452,-1.3872,-91.3998,-127.6287,-509.0854, 0.0000, 0.0000, 0.0000
06-Feb-2019 10:36:04.143,-0.2124,-1.0313,-0.0169,-0.2103,-0.0298,-0.0332, 0.5719, 0.2342,-0.5752,-1.5474, 1.4395, 0.8633,50.104393,-122.940364, 0.0110, 100.4754, 843.197876, 6.0, 3.0,Walking,High, 92.3452,-1.3872,-92.3884,-126.8946,-513.3514, 0.0000, 0.0000, 0.0000
06-Feb-2019 10:36:04.239,-0.1794,-0.9576,-0.0588, 0.0582, 0.0447,-0.0477,-0.0239, 0.8104, 0.0684,-1.5278, 1.4426, 0.9341,50.104393,-122.940364, 0.0110, 98.8523, 843.197876, 6.0, 3.0,Walking,High, 92.3452,-1.3872,-92.3858,-127.1940,-513.0529, 0.0000, 0.0000, 0.0000
06-Feb-2019 10:36:04.280,-0.2280,-0.9785,-0.2017,-0.0507, 0.0432,-0.3415,-0.2518,-0.9611,-0.0584,-1.5331, 1.4484, 0.9344,50.104392,-122.940362, 0.0880, 95.1062, 843.237854, 6.0, 3.0,Walking,High, 92.3452,-1.3872,-91.6373,-127.4920,-514.8585, 0.0000, 0.0000, 0.0000
06-Feb-2019 10:36:04.379,-0.0934,-0.9588,-0.0535, 0.0145, 0.0128,-0.0237, 0.1328, 0.2042,-0.2206,-1.5747, 1.4541, 0.9921,50.104392,-122.940362, 0.0880, 96.3446, 843.237854, 6.0, 3.0,Walking,High, 92.3452,-1.3872,-91.4858,-127.6404,-514.6350, 0.0000, 0.0000, 0.0000
06-Feb-2019 10:36:04.478,-0.3124,-0.9314,-0.0451,-0.1862, 0.0862,-0.0220,-0.1982,-0.0506,-0.0991,-1.5267, 1.4859, 0.9280,50.104392,-122.940362, 0.0880, 95.0080, 843.237854, 6.0, 3.0,Walking,High, 92.3423,-1.1256,-90.5808,-128.3083,-514.4934, 0.0000, 0.0000, 0.0000
06-Feb-2019 10:36:04.577, 0.0259,-1.0437, 0.0093, 0.1200,-0.0388, 0.0686,-0.0710,-0.3697,-0.3845,-1.4780, 1.4950, 0.8856,50.104392,-122.940362, 0.0880, 95.0080, 843.237854, 6.0, 3.0,Walking,High, 92.3423,-1.1256,-90.0526,-128.8299,-514.7239, 0.0000, 0.0000, 0.0000
06-Feb-2019 10:36:04.677,-0.1911,-1.0306,-0.0313,-0.2071, 0.0163,-0.0071, 0.0807,-0.2869,-0.1961,-1.3740, 1.5307, 0.7209,50.104392,-122.940362, 0.0880, 97.5891, 843.237854, 6.0, 3.0,Walking,High, 92.3423,-1.1256,-88.7668,-130.0177,-513.4619, 0.0000, 0.0000, 0.0000
06-Feb-2019 10:36:04.776,-0.0426,-0.9192,-0.0680,-0.0472, 0.1000,-0.0635,-0.0616,-0.4202,-0.4900,-1.2216, 1.5512, 0.5589,50.104392,-122.940362, 0.0880, 99.0194, 843.237854, 6.0, 3.0,Walking,High, 92.3423,-1.1256,-87.7868,-130.6095,-513.0203, 0.0000, 0.0000, 0.0000
06-Feb-2019 10:36:04.875,-0.2555,-1.0823, 0.0168,-0.2093,-0.1414,-0.0187, 0.4611,-0.3840, 0.6451,-1.6275, 1.5144, 0.8924,50.104392,-122.940362, 0.0880, 101.9505, 843.237854, 6.0, 3.0,Walking,High, 92.3423,-1.1256,-88.4610,-130.3116,-511.5901, 0.0000, 0.0000, 0.0000
06-Feb-2019 10:36:04.975,-0.0020,-0.8156, 0.2529, 0.0950, 0.0108, 0.2307, 1.4612, 0.7917, 0.3975,-2.4521, 1.3848, 1.7888,50.104392,-122.940362, 0.0880, 101.5015, 843.237854, 6.0, 3.0,Walking,High, 92.3423,-1.1256,-91.5459,-127.6259,-507.1347, 0.0000, 0.0000, 0.0000
06-Feb-2019 10:36:05.143, 0.0995,-0.9856,-0.3044,-0.8793,-0.5400,-0.5077,-1.0905,-2.1641, 1.0762,-2.6217, 1.3879, 1.7762,50.104392,-122.940362, 0.0880, 101.4395, 843.237854, 6.0, 3.0,Walking,High, 92.3423,-1.1256,-89.5824,-128.1261,-502.1229, 0.0000, 0.0000, 0.0000
06-Feb-2019 10:36:05.231,-0.5748,-0.8532, 0.6460,-0.3038, 0.1321, 0.0715, 0.4238,-0.1086,-0.7065,-2.8382, 1.3548, 2.0434,50.104392,-122.940362, 0.0333, 108.6267, 843.274658, 6.0, 3.0,Walking,High, 92.3423,-1.1256,-91.0895,-127.0872,-502.0345, 0.0000, 0.0000, 0.0000
06-Feb-2019 10:36:05.272, 0.4438,-1.1090,-0.1570, 0.3867,-0.3941,-0.2940,-0.5975, 0.3868,-3.8310, 3.0451, 1.3232, 2.5440,50.104392,-122.940362, 0.0333, 103.4935, 843.274658, 6.0, 3.0,Walking,High, 92.3423,-1.1256,-90.0331,-127.9792,-501.9697, 0.0000, 0.0000, 0.0000
06-Feb-2019 10:36:05.372, 0.1690,-0.4614, 0.4987,-0.0048, 0.2580, 0.2756, 1.3681, 0.2306,-2.0019, 1.8178, 1.1182,-2.5348,50.104392,-122.940362, 0.0333, 104.3703, 843.274658, 6.0, 3.0,Walking,High, 92.3423,-1.1256,-70.7103,-136.2443,-506.9923, 0.0000, 0.0000, 0.0000
06-Feb-2019 10:36:05.471, 0.3942,-1.1775, 0.3077,-0.2391,-0.3576,-0.0005,-0.1118, 0.4399, 4.2838, 2.3744, 1.2846,-3.1148,50.104392,-122.940362, 0.0333, 105.6253, 843.274658, 6.0, 3.0,Walking,High, 92.3423,-1.1256,-75.2110,-134.8440,-502.4606, 0.0000, 0.0000, 0.0000
06-Feb-2019 10:36:05.570,-0.2440,-2.0319,-0.0564,-0.3650,-1.2944,-0.1349, 0.3961, 0.8028, 0.1504, 2.8487, 1.3516, 2.7167,50.104392,-122.940362, 0.0333, 103.7957, 843.274658, 6.0, 3.0,Walking,High, 92.3423,-1.1256,-85.1355,-131.3937,-502.6137, 0.0000, 0.0000, 0.0000
06-Feb-2019 10:36:05.670, 0.1113,-1.3082, 0.2794,-0.1930,-0.4223, 0.1207,-0.8703,-1.7903,-3.2077, 2.3651, 1.3401,-3.0575,50.104392,-122.940362, 0.0333, 100.9165, 843.274658, 6.0, 3.0,Walking,High, 92.3423,-1.1256,-85.1401,-131.3984,-504.9388, 0.0000, 0.0000, 0.0000
06-Feb-2019 10:36:05.769, 0.4071,-0.0945,-0.1778,-0.0924, 0.3607,-0.4722,-0.6425,-0.8807,-1.1585, 2.0532, 1.0783,-2.8070,50.104392,-122.940362, 0.0333, 106.3866, 843.274658, 6.0, 3.0,Walking,High, 92.3423,-1.1256,-70.9316,-134.8828,-500.3843, 0.0000, 0.0000, 0.0000
06-Feb-2019 10:36:05.868,-0.3269,-1.4467, 0.0423,-0.5788, 0.0904,-0.2836, 0.6443, 3.0763, 5.0444, 2.5325, 1.2497, 3.0661,50.104392,-122.940362, 0.0333, 105.7747, 843.274658, 6.0, 3.0,Walking,High, 92.3423,-1.1256,-74.7552,-135.1369,-500.5895, 0.0000, 0.0000, 0.0000
06-Feb-2019 10:36:05.967,-0.5141,-0.9175, 0.3037,-0.6640, 0.0663, 0.2285, 0.3922,-0.6037, 0.2640, 2.9031, 1.3821, 2.6770,50.104392,-122.940362, 0.0333, 100.6980, 843.274658, 6.0, 3.0,Walking,High, 92.3423,-1.1256,-85.6651,-131.1759,-504.1848, 0.0000, 0.0000, 0.0000
06-Feb-2019 10:36:06.151,-0.4297,-1.0716, 0.0095, 0.2028, 0.3143, 0.2311, 1.4262,-0.0836,-0.5204, 2.9688, 1.3034, 2.5698,50.104392,-122.940362, 0.0333, 103.5452, 843.274658, 6.0, 3.0,Walking,High, 92.3423,-1.1256,-84.9851,-130.1838,-498.1835, 0.0000, 0.0000, 0.0000
06-Feb-2019 10:36:06.228, 0.1703,-0.7649, 0.2963, 0.1143, 0.0594, 0.4111,-1.6501,-2.4455,-0.0137, 2.7817, 1.3787, 2.6813,50.104392,-122.940362, 0.0333, 106.9482, 843.274658, 6.0, 3.0,Walking,High, 92.3423,-1.1256,-85.2872,-130.4148,-500.0580, 0.0000, 0.0000, 0.0000
06-Feb-2019 10:36:06.265, 0.1928,-0.9039, 0.3584, 0.0797, 0.0747, 0.2445,-1.0510,-1.2956,-0.4561, 2.3306, 1.4190, 3.0251,50.104387,-122.940364, 0.2890, 112.5080, 843.273499, 6.0, 3.0,Walking,High, 92.3349,-0.4677,-83.1017,-132.2004,-501.0540, 0.0000, 0.0000, 0.0000
06-Feb-2019 10:36:06.365, 0.1272,-1.0988,-0.2983, 0.0196, 0.0099,-0.2410,-0.1882, 3.1096, 0.0195, 2.0231, 1.4535,-2.6221,50.104387,-122.940364, 0.2890, 102.2351, 843.273499, 6.0, 3.0,Walking,High, 92.3349,-0.4677,-82.5872,-133.7177,-511.6394, 0.0000, 0.0000, 0.0000
06-Feb-2019 10:36:06.465,-0.0155,-1.1148, 0.3867,-0.1743,-0.1350, 0.3564,-0.1799, 1.0050,-0.2601, 1.5981, 1.4277,-2.2376,50.104387,-122.940364, 0.2890, 98.2961, 843.273499, 6.0, 3.0,Walking,High, 92.3349,-0.4677,-81.4592,-134.1593,-511.6478, 0.0000, 0.0000, 0.0000
06-Feb-2019 10:36:06.564, 0.1735,-1.0339, 0.0572,-0.0496,-0.0738,-0.0343, 0.1658,-0.1770,-0.3393, 1.6270, 1.3951,-2.2825,50.104387,-122.940364, 0.2890, 98.2462, 843.273499, 6.0, 3.0,Walking,High, 92.3349,-0.4677,-79.5053,-134.8204,-512.0369, 0.0000, 0.0000, 0.0000
06-Feb-2019 10:36:06.662, 0.0745,-1.0565,-0.0007,-0.2154,-0.0941,-0.0819, 0.0674,-0.2692,-0.3261, 1.6521, 1.3510,-2.3552,50.104387,-122.940364, 0.2890, 100.6985, 843.273499, 6.0, 3.0,Walking,High, 92.3349,-0.4677,-77.8489,-135.3301,-510.6235, 0.0000, 0.0000, 0.0000
06-Feb-2019 10:36:06.762, 0.1741,-1.0149, 0.0404,-0.0630,-0.0142, 0.0116,-0.0571,-0.1242,-0.3116, 1.6258, 1.3254,-2.3292,50.104387,-122.940364, 0.2890, 100.6985, 843.273499, 6.0, 3.0,Walking,High, 92.3349,-0.4677,-76.1157,-136.4417,-510.4136, 0.0000, 0.0000, 0.0000
06-Feb-2019 10:36:06.861, 0.2301,-1.0147, 0.0095,-0.0478,-0.0241, 0.0114,-0.1677, 0.0177,-0.3012, 1.5878, 1.2954,-2.2953,50.104387,-122.940364, 0.2890, 101.7432, 843.273499, 6.0, 3.0,Walking,High, 92.3349,-0.4677,-75.2128,-136.8851,-510.4958, 0.0000, 0.0000, 0.0000
06-Feb-2019 10:36:06.960, 0.2105,-0.9914,-0.0046,-0.1049,-0.0353,-0.0079,-0.1601,-0.0720,-0.2289, 1.5361, 1.2768,-2.2420,50.104387,-122.940364, 0.2890, 101.7432, 843.273499, 6.0, 3.0,Walking,High, 92.3349,-0.4677,-73.5626,-137.1745,-511.4063, 0.0000, 0.0000, 0.0000
06-Feb-2019 10:36:07.170, 0.2151,-1.0120,-0.0048,-0.0572, 0.1822,-0.0070,-0.1902,-0.1101, 0.0873, 1.3750, 1.2919,-2.1442,50.104387,-122.940364, 0.2890, 101.7432, 843.273499, 6.0, 3.0,Walking,High, 92.3349,-0.4677,-73.8656,-136.8023,-511.6278, 0.0000, 0.0000, 0.0000
06-Feb-2019 10:36:07.242, 0.1993,-0.8102,-0.0760, 0.1048,-0.0395,-0.0071,-0.1902,-0.1101, 0.0873, 1.3243, 1.3139,-2.0871,50.104387,-122.940364, 0.2890, 104.3437, 843.273499, 6.0, 3.0,Walking,High, 92.3349,-0.4677,-74.7671,-136.8105,-512.3729, 0.0000, 0.0000, 0.0000
06-Feb-2019 10:36:07.258, 0.0180,-1.0255,-0.0930,-0.1186,-0.0626,-0.0518, 0.0256,-0.7327, 0.5144, 1.3100, 1.3221,-2.0834,50.104385,-122.940365, 0.0567, 104.3437, 843.268494, 6.0, 3.0,Walking,High, 92.3343,-0.4122,-74.7671,-136.8105,-512.3729, 0.0000, 0.0000, 0.0000
06-Feb-2019 10:36:07.358, 0.1962,-1.0785,-0.1321, 0.0282,-0.0637,-0.0729, 0.0130,-0.6576, 0.3867, 1.2467, 1.4009,-2.0427,50.104385,-122.940365, 0.0567, 105.9158, 843.268494, 6.0, 3.0,Walking,High, 92.3343,-0.4122,-78.9723,-135.7146,-511.1443, 0.0000, 0.0000, 0.0000
06-Feb-2019 10:36:07.497, 0.0430,-1.0116,-0.0485,-0.0850, 0.0022,-0.0072, 0.0411,-0.9624, 0.0944, 1.0406, 1.4241,-1.9590,50.104385,-122.940365, 0.0567, 112.4917, 843.268494, 6.0, 3.0,Walking,High, 92.3343,-0.4122,-79.5769,-134.8175,-510.3114, 0.0000, 0.0000, 0.0000
06-Feb-2019 10:36:07.556, 0.0166,-1.0214,-0.1380,-0.1025,-0.0366,-0.0728, 0.1932,-1.0784, 0.0662, 1.0124, 1.4334,-2.0095,50.104385,-122.940365, 0.0567, 116.3326, 843.268494, 6.0, 3.0,Walking,High, 92.3343,-0.4122,-79.4951,-134.8855,-507.1622, 0.0000, 0.0000, 0.0000
06-Feb-2019 10:36:07.655, 0.0707,-1.0286,-0.0594,-0.0253,-0.0273,-0.0003, 0.2632,-0.3035, 0.1190, 1.0679, 1.4468,-2.1295,50.104385,-122.940365, 0.0567, 121.2116, 843.268494, 6.0, 3.0,Walking,High, 92.3343,-0.4122,-79.4166,-134.9570,-505.6630, 0.0000, 0.0000, 0.0000
06-Feb-2019 10:36:07.755, 0.0688,-1.0122,-0.0194,-0.0076,-0.0189, 0.0040, 0.3459, 0.7220, 0.0829, 1.3575, 1.4714,-2.3926,50.104385,-122.940365, 0.0567, 121.2116, 843.268494, 6.0, 3.0,Walking,High, 92.3343,-0.4122,-80.2429,-134.4358,-504.4558, 0.0000, 0.0000, 0.0000
06-Feb-2019 10:36:07.854, 0.0383,-0.9801,-0.0414,-0.0752, 0.0108,-0.0644, 0.1113, 0.8360,-0.1780, 1.6878, 1.4711,-2.6394,50.104385,-122.940365, 0.0567, 116.9270, 843.268494, 6.0, 3.0,Walking,High, 92.3343,-0.4122,-80.6944,-134.2141,-504.4523, 0.0000, 0.0000, 0.0000
06-Feb-2019 10:36:07.954, 0.0778,-0.9787,-0.0281,-0.0527, 0.0358,-0.0555, 0.0233, 0.7576,-0.3394, 1.8249, 1.4426,-2.6936,50.104385,-122.940365, 0.0567, 112.1820, 843.268494, 6.0, 3.0,Walking,High, 92.3343,-0.4122,-80.0943,-134.6626,-505.9578, 0.0000, 0.0000, 0.0000
06-Feb-2019 10:36:08.143, 0.1035,-0.9057,-0.0316,-0.0661, 0.0382,-0.0290,-0.2815, 0.3269,-0.3247, 1.6336, 1.4017,-2.4320,50.104385,-122.940365, 0.0567, 108.1654, 843.268494, 6.0, 3.0,Walking,High, 92.3343,-0.4122,-77.9167,-135.8520,-508.8257, 0.0000, 0.0000, 0.0000
06-Feb-2019 10:36:08.154, 0.0933,-1.0889, 0.1256,-0.0828,-0.0833, 0.1311,-0.2868, 0.1843,-0.1343, 1.5536, 1.3908,-2.3467,50.104385,-122.940365, 0.0567, 107.0867, 843.268494, 6.0, 3.0,Walking,High, 92.3296, 0.0106,-77.4700,-135.5499,-509.4267, 0.0000, 0.0000, 0.0000
06-Feb-2019 10:36:08.251, 0.1753,-0.9758, 0.0470, 0.0218, 0.0076, 0.0589,-0.2893,-0.1987, 0.0227, 1.4083, 1.3915,-2.1984,50.104384,-122.940361, 0.0921, 107.0867, 843.278381, 6.0, 3.0,Walking,High, 92.3296, 0.0106,-77.7708,-135.7795,-510.6262, 0.0000, 0.0000, 0.0000
06-Feb-2019 10:36:08.351, 0.1464,-0.9407, 0.0644, 0.0068, 0.0406, 0.1333,-0.0914,-0.0915, 0.0953, 1.3109, 1.3981,-2.1061,50.104384,-122.940361, 0.0921, 107.0867, 843.278381, 6.0, 3.0,Walking,High, 92.3296, 0.0106,-77.9967,-135.7821,-511.0750, 0.0000, 0.0000, 0.0000
06-Feb-2019 10:36:08.450, 0.2313,-0.9855,-0.0087, 0.0678, 0.0150, 0.0565, 0.0253,-0.7352, 0.1831, 1.2574, 1.4114,-2.1017,50.104384,-122.940361, 0.0921, 108.3057, 843.278381, 6.0, 3.0,Walking,High, 92.3296, 0.0106,-78.3740,-135.4097,-510.9210, 0.0000, 0.0000, 0.0000
06-Feb-2019 10:36:08.549, 0.0676,-0.9595,-0.1099,-0.0515,-0.0034,-0.0546,-0.1203,-0.4637, 0.1978, 1.1759, 1.4342,-2.0699,50.104384,-122.940361, 0.0921, 111.0118, 843.278381, 6.0, 3.0,Walking,High, 92.3296, 0.0106,-79.0475,-135.2621,-509.6416, 0.0000, 0.0000, 0.0000
06-Feb-2019 10:36:08.648, 0.0822,-1.0057,-0.0450,-0.0071, 0.0038, 0.0171, 0.1318,-0.6563, 0.2626, 1.0237, 1.4565,-1.9700,50.104384,-122.940361, 0.0921, 113.4095, 843.278381, 6.0, 3.0,Walking,High, 92.3296, 0.0106,-80.2490,-134.8197,-508.8828, 0.0000, 0.0000, 0.0000
06-Feb-2019 10:36:08.747, 0.0074,-1.0482,-0.1096,-0.0508,-0.0571,-0.0608, 0.2085,-0.8132, 0.0539, 1.0698, 1.4827,-2.0800,50.104384,-122.940361, 0.0921, 117.0061, 843.278381, 6.0, 3.0,Walking,High, 92.3296, 0.0106,-80.5484,-134.4436,-507.2292, 0.0000, 0.0000, 0.0000
06-Feb-2019 10:36:08.847,-0.0242,-0.9794,-0.1075,-0.1007, 0.0287,-0.0795, 0.0923,-0.5698,-0.0176, 1.0457, 1.4957,-2.1359,50.104384,-122.940361, 0.0921, 122.7347, 843.278381, 6.0, 3.0,Walking,High, 92.3296, 0.0106,-80.1680,-134.4353,-504.5313, 0.0000, 0.0000, 0.0000
06-Feb-2019 10:36:08.946, 0.0711,-0.9477,-0.0702, 0.0125, 0.0454,-0.0415, 0.1061, 0.0925,-0.0654, 1.2293, 1.4986,-2.3338,50.104384,-122.940361, 0.0921, 124.2576, 843.278381, 6.0, 3.0,Walking,High, 92.3296, 0.0106,-79.4884,-134.8032,-503.4868, 0.0000, 0.0000, 0.0000
06-Feb-2019 10:36:09.147,-0.0819,-0.9978,-0.0306,-0.1592, 0.0067,-0.0051,-0.2026, 0.6371,-0.1426, 1.2924, 1.4738,-2.2976,50.104384,-122.940361, 0.0921, 122.3517, 843.278381, 6.0, 3.0,Walking,High, 92.3296, 0.0106,-79.4162,-134.8055,-504.9123, 0.0000, 0.0000, 0.0000
06-Feb-2019 10:36:09.156,-0.0819,-0.9978,-0.0306,-0.1756,-0.0025,-0.0033,-0.2026, 0.6371,-0.1426, 1.2879, 1.4730,-2.2897,50.104384,-122.940361, 0.0921, 120.8064, 843.278381, 6.0, 3.0,Walking,High, 92.3296, 0.0106,-79.1923,-134.8804,-505.7389, 0.0000, 0.0000, 0.0000
06-Feb-2019 10:36:09.264,-0.0529,-1.1241, 0.0465,-0.1034,-0.1077, 0.0556, 0.0771, 0.8399, 0.0381, 1.2396, 1.4716,-2.1544,50.104382,-122.940355, 0.1619, 114.1744, 843.328979, 6.0, 3.0,Walking,High, 92.3296, 0.0106,-79.4191,-135.0350,-507.1634, 0.0000, 0.0000, 0.0000
06-Feb-2019 10:36:09.343,-0.1009,-0.9524,-0.0612,-0.1679, 0.0232,-0.0169, 0.3002, 0.4883,-0.2309, 1.4826, 1.4640,-2.3685,50.104382,-122.940355, 0.1619, 112.8213, 843.328979, 6.0, 3.0,Walking,High, 92.3296, 0.0106,-79.1175,-135.3332,-507.3915, 0.0000, 0.0000, 0.0000
06-Feb-2019 10:36:09.443, 0.0952,-0.7984,-0.0146,-0.0453, 0.1629,-0.0552,-0.1283, 1.1066,-0.4930, 1.6790, 1.4365,-2.4681,50.104382,-122.940355, 0.1619, 107.8832, 843.328979, 6.0, 3.0,Walking,High, 92.3296, 0.0106,-77.9918,-135.6261,-508.0742, 0.0000, 0.0000, 0.0000
06-Feb-2019 10:36:09.541, 0.0739,-0.8105,-0.0035,-0.0739, 0.0651,-0.0464,-0.6170, 0.7114,-0.3555, 1.7090, 1.3956,-2.3579,50.104382,-122.940355, 0.1619, 100.0244, 843.328979, 6.0, 3.0,Walking,High, 92.3296, 0.0106,-76.1136,-136.5906,-509.8894, 0.0000, 0.0000, 0.0000
06-Feb-2019 10:36:09.641, 0.2501,-1.3306, 0.3038, 0.0390,-0.4409, 0.3816,-0.2135, 0.4889,-0.3049, 1.5063, 1.3582,-2.1349,50.104382,-122.940355, 0.1619, 98.3962, 843.328979, 6.0, 3.0,Walking,High, 92.3296, 0.0106,-74.0181,-136.8814,-513.1274, 0.0000, 0.0000, 0.0000
06-Feb-2019 10:36:09.740, 0.1011,-0.8316, 0.1309,-0.1248, 0.0921, 0.1395,-0.2270,-0.1891,-0.3030, 1.4587, 1.3180,-2.1066,50.104382,-122.940355, 0.1619, 97.0129, 843.328979, 6.0, 3.0,Walking,High, 92.3296, 0.0106,-72.6622,-137.7716,-513.2892, 0.0000, 0.0000, 0.0000
06-Feb-2019 10:36:09.840, 0.2409,-0.8262, 0.0978,-0.0259, 0.1213, 0.1624, 0.0695,-0.6752,-0.6113, 1.4026, 1.2837,-2.0650,50.104382,-122.940355, 0.1619, 98.0175, 843.328979, 6.0, 3.0,Walking,High, 92.3296, 0.0106,-70.2626,-137.9049,-513.9781, 0.0000, 0.0000, 0.0000
06-Feb-2019 10:36:09.939, 0.3423,-1.0080, 0.1819, 0.0083,-0.0844, 0.2570, 0.0072,-0.0676,-0.2739, 1.3689, 1.2431,-2.1230,50.104382,-122.940355, 0.1619, 103.1383, 843.328979, 6.0, 3.0,Walking,High, 92.3305,-0.0740,-68.5337,-138.1900,-513.0140, 0.0000, 0.0000, 0.0000
06-Feb-2019 10:36:10.146, 0.5253,-1.0844, 0.0589, 0.2153,-0.1423, 0.1867, 0.6542,-1.3509,-0.2218, 1.1797, 1.2289,-1.7626,50.104382,-122.940355, 0.1619, 96.7516, 843.328979, 6.0, 3.0,Walking,High, 92.3305,-0.0740,-65.7578,-138.5458,-513.7811, 0.0000, 0.0000, 0.0000
06-Feb-2019 10:36:10.154, 0.5253,-1.0844, 0.0589, 0.1045,-0.0773, 0.0479, 0.6542,-1.3509,-0.2218, 1.1923, 1.2283,-1.7865,50.104382,-122.940355, 0.1619, 92.5478, 843.328979, 6.0, 3.0,Walking,High, 92.3305,-0.0740,-68.2478,-137.6734,-518.2630, 0.0000, 0.0000, 0.0000
06-Feb-2019 10:36:10.238, 0.2796,-0.9330,-0.3048,-0.0844, 0.0384,-0.2682, 1.1719,-1.7813,-0.1710, 1.3273, 1.2284,-1.9804,50.104383,-122.940350, 0.1623, 95.4148, 843.410461, 6.0, 3.0,Walking,High, 92.3305,-0.0740,-67.7142,-138.1139,-515.4932, 0.0000, 0.0000, 0.0000
06-Feb-2019 10:36:10.337, 0.0324,-1.0078,-0.2225,-0.2669,-0.0061,-0.1706, 0.2512,-1.7590, 0.4242, 1.3805, 1.2437,-2.2692,50.104383,-122.940350, 0.1623, 108.5910, 843.410461, 6.0, 3.0,Walking,High, 92.3305,-0.0740,-67.4785,-138.1013,-510.0944, 0.0000, 0.0000, 0.0000
06-Feb-2019 10:36:10.436, 0.0597,-0.9247,-0.1176,-0.2590, 0.0587,-0.0343, 0.1178,-0.2289,-0.0456, 1.2993, 1.2636,-2.2747,50.104383,-122.940350, 0.1623, 114.7089, 843.410461, 6.0, 3.0,Walking,High, 92.3305,-0.0740,-68.3025,-137.8799,-508.8138, 0.0000, 0.0000, 0.0000
06-Feb-2019 10:36:10.535,-0.0825,-1.0750,-0.2599,-0.3382,-0.1291,-0.1785,-1.1197, 1.0915, 0.6430, 1.2831, 1.2793,-2.1859,50.104383,-122.940350, 0.1623, 113.9044, 843.410461, 6.0, 3.0,Walking,High, 92.3305,-0.0740,-68.9063,-137.4352,-509.1832, 0.0000, 0.0000, 0.0000
06-Feb-2019 10:36:10.634, 0.5954,-0.7391, 0.1498, 0.4366, 0.3034, 0.3314, 2.1074,-0.8980,-1.3067, 1.2888, 1.2671,-2.2215,50.104383,-122.940350, 0.1623, 111.7811, 843.410461, 6.0, 3.0,Walking,High, 92.3305,-0.0740,-68.7551,-137.7349,-509.6355, 0.0000, 0.0000, 0.0000
06-Feb-2019 10:36:10.733, 0.0896,-1.2539,-0.1562,-0.1891,-0.2765,-0.1274, 0.1779, 0.0428, 0.7264, 1.5429, 1.2694,-2.5111,50.104383,-122.940350, 0.1623, 117.4162, 843.410461, 6.0, 3.0,Walking,High, 92.3305,-0.0740,-67.5499,-137.3430,-505.6652, 0.0000, 0.0000, 0.0000
06-Feb-2019 10:36:10.832, 0.0620,-1.1813,-0.0300,-0.1404,-0.2838,-0.0510, 1.0779,-1.0589,-0.4269, 1.7157, 1.3277,-2.7999,50.104383,-122.940350, 0.1623, 121.9843, 843.410461, 6.0, 3.0,Walking,High, 92.3305,-0.0740,-70.0980,-136.4539,-501.5967, 0.0000, 0.0000, 0.0000
06-Feb-2019 10:36:10.932, 0.1566,-0.6876, 0.1365,-0.1898, 0.2144,-0.0011, 1.0444,-4.0125,-1.1823, 1.7365, 1.2257,-3.1018,50.104383,-122.940350, 0.1623, 134.4527, 843.410461, 6.0, 3.0,Walking,High, 92.3342,-0.4042,-65.0682,-135.7314,-496.6708, 0.0000, 0.0000, 0.0000
06-Feb-2019 10:36:11.142, 0.4203,-0.7835, 0.0860, 0.0081, 0.1056,-0.1131,-0.0365,-0.0198, 0.0871, 2.0208, 1.0954, 2.8659,50.104383,-122.940350, 0.1623, 145.5807, 843.410461, 6.0, 3.0,Walking,High, 92.3342,-0.4042,-58.3981,-133.2689,-490.4702, 0.0000, 0.0000, 0.0000
06-Feb-2019 10:36:11.151, 0.4203,-0.7835, 0.0860, 0.0291, 0.0700,-0.0868,-0.0365,-0.0198, 0.0871, 2.0188, 1.0966, 2.8667,50.104383,-122.940350, 0.1623, 144.1678, 843.410461, 6.0, 3.0,Walking,High, 92.3342,-0.4042,-59.0016,-132.4462,-489.3378, 0.0000, 0.0000, 0.0000
06-Feb-2019 10:36:11.233, 0.3442,-0.8096, 0.2348,-0.0416, 0.0979, 0.0846,-0.7996, 1.1939, 0.5457, 1.9721, 1.1384, 2.9558,50.104381,-122.940342, 0.1120, 144.1678, 843.467896, 6.0, 3.0,Walking,High, 92.3342,-0.4042,-60.7975,-133.5885,-491.2836, 0.0000, 0.0000, 0.0000
06-Feb-2019 10:36:11.329, 0.3512,-0.8965, 0.1671, 0.0125, 0.1110,-0.0296,-0.5852,-0.1983, 0.2194, 1.9986, 1.2020, 3.0228,50.104381,-122.940342, 0.1120, 135.1320, 843.467896, 6.0, 3.0,Walking,High, 92.3342,-0.4042,-64.0993,-133.9175,-493.3671, 0.0000, 0.0000, 0.0000
06-Feb-2019 10:36:11.464, 0.2708,-0.9777, 0.1343,-0.0142,-0.0181,-0.0740, 0.6335,-0.4053, 0.0610, 2.0478, 1.2048, 2.9577,50.104381,-122.940342, 0.1120, 135.1320, 843.467896, 6.0, 3.0,Walking,High, 92.3342,-0.4042,-64.8491,-134.0740,-493.8138, 0.0000, 0.0000, 0.0000
06-Feb-2019 10:36:11.527, 0.2041,-0.8911, 0.0762,-0.0733,-0.0176,-0.1031, 0.0373,-0.1304,-0.0533, 2.0864, 1.1942, 2.9023,50.104381,-122.940342, 0.1120, 136.4986, 843.467896, 6.0, 3.0,Walking,High, 92.3342,-0.4042,-64.5494,-133.5433,-492.0877, 0.0000, 0.0000, 0.0000
06-Feb-2019 10:36:11.628, 0.2973,-0.9861, 0.1891,-0.0228,-0.0602, 0.0150, 0.2304,-0.0689,-0.0064, 2.0654, 1.1941, 2.8945,50.104381,-122.940342, 0.1120, 137.7812, 843.467896, 6.0, 3.0,Walking,High, 92.3342,-0.4042,-63.8761,-133.1624,-491.6395, 0.0000, 0.0000, 0.0000
06-Feb-2019 10:36:11.726, 0.2021,-0.9941, 0.1845,-0.1246,-0.0750,-0.0149,-0.2098, 0.0746, 0.1397, 2.0902, 1.2047, 2.8817,50.104381,-122.940342, 0.1120, 137.7812, 843.467896, 6.0, 3.0,Walking,High, 92.3342,-0.4042,-64.4013,-133.1664,-491.7117, 0.0000, 0.0000, 0.0000
06-Feb-2019 10:36:11.825, 0.2173,-0.9953, 0.1803,-0.0590,-0.0536,-0.0014,-0.1272, 0.1787, 0.0711, 2.1055, 1.2235, 2.8844,50.104381,-122.940342, 0.1120, 137.7812, 843.467896, 6.0, 3.0,Walking,High, 92.3342,-0.4042,-65.5275,-133.1762,-492.3805, 0.0000, 0.0000, 0.0000
06-Feb-2019 10:36:11.924, 0.2306,-0.9488, 0.1655,-0.0495,-0.0205,-0.0127, 0.0045,-0.0190,-0.0309, 2.1075, 1.2309, 2.8921,50.104381,-122.940342, 0.1120, 136.7514, 843.467896, 6.0, 3.0,Walking,High, 92.3342,-0.4042,-65.6804,-132.9537,-493.0536, 0.0000, 0.0000, 0.0000
06-Feb-2019 10:36:12.118, 0.2264,-0.9898, 0.1540,-0.0534,-0.0442,-0.0115,-0.0989,-0.0219, 0.0080, 2.1048, 1.2397, 2.9018,50.104381,-122.940342, 0.1120, 135.7250, 843.467896, 6.0, 3.0,Walking,High, 92.3342,-0.4042,-66.1264,-133.4818,-492.9037, 0.0000, 0.0000, 0.0000
06-Feb-2019 10:36:12.152, 0.2500,-0.9783, 0.2519,-0.0913,-0.0080, 0.0824, 0.1903,-0.3462,-0.3257, 2.0714, 1.2234, 2.9062,50.104381,-122.940342, 0.1120, 136.8664, 843.467896, 6.0, 3.0,Walking,High, 92.3342,-0.4042,-64.7770,-133.3210,-492.6104, 0.0000, 0.0000, 0.0000
06-Feb-2019 10:36:12.243, 0.2065,-0.9203, 0.1900,-0.0973, 0.0367, 0.0127, 0.2595,-0.5772,-0.2362, 2.0860, 1.1957, 2.8573,50.104382,-122.940341, 0.0075, 136.8664, 843.584656, 6.0, 3.0,Walking,High, 92.3342,-0.4042,-63.7279,-132.9364,-491.7142, 0.0000, 0.0000, 0.0000
06-Feb-2019 10:36:12.321, 0.4384,-1.0212, 0.2389, 0.0677,-0.0812, 0.0122, 0.6163,-0.6401,-1.0080, 2.0955, 1.1296, 2.7952,50.104382,-122.940341, 0.0075, 142.1588, 843.584656, 6.0, 3.0,Walking,High, 92.3342,-0.4042,-61.1812,-131.8631,-489.6229, 0.0000, 0.0000, 0.0000
06-Feb-2019 10:36:12.421, 0.2894,-0.8735, 0.2442,-0.1786,-0.0695, 0.0379,-0.0091,-0.1783,-0.8728, 2.0012, 1.0306, 2.8493,50.104382,-122.940341, 0.0075, 146.0077, 843.584656, 6.0, 3.0,Walking,High, 92.3342,-0.4042,-54.8107,-130.9132,-488.5281, 0.0000, 0.0000, 0.0000
06-Feb-2019 10:36:12.521, 0.4724,-0.7800, 0.2343,-0.0778, 0.0588, 0.0194, 0.2978, 0.1131,-0.5097, 1.9710, 0.9567, 2.8818,50.104382,-122.940341, 0.0075, 146.0077, 843.584656, 6.0, 3.0,Walking,High, 92.3342,-0.4042,-52.4137,-130.3694,-488.1636, 0.0000, 0.0000, 0.0000
06-Feb-2019 10:36:12.620, 0.4761,-0.7688, 0.2312,-0.0583, 0.0335,-0.0113,-0.1705, 0.1960,-0.0133, 1.9898, 0.9399, 2.8817,50.104382,-122.940341, 0.0075, 146.0077, 843.584656, 6.0, 3.0,Walking,High, 92.3342,-0.4042,-51.9666,-129.7647,-487.4881, 0.0000, 0.0000, 0.0000
06-Feb-2019 10:36:12.719, 0.5348,-0.8511, 0.2957,-0.0229,-0.0103, 0.0525,-0.0680,-0.1214,-0.0602, 1.9832, 0.9434, 2.8962,50.104382,-122.940341, 0.0075, 146.0077, 843.584656, 6.0, 3.0,Walking,High, 92.3343,-0.4122,-52.2642,-130.2177,-487.8637, 0.0000, 0.0000, 0.0000
06-Feb-2019 10:36:12.818, 0.5376,-0.8927, 0.2717, 0.0021,-0.0965, 0.0419,-0.0098,-0.0581,-0.0854, 1.9708, 0.9366, 2.8965,50.104382,-122.940341, 0.0075, 146.0077, 843.584656, 6.0, 3.0,Walking,High, 92.3343,-0.4122,-51.5148,-130.0617,-487.6420, 0.0000, 0.0000, 0.0000
06-Feb-2019 10:36:12.917, 0.5213,-0.7809, 0.2220,-0.0172, 0.0004,-0.0033,-0.0297, 0.0407,-0.0746, 1.9629, 0.9315, 2.9015,50.104382,-122.940341, 0.0075, 146.0077, 843.584656, 6.0, 3.0,Walking,High, 92.3343,-0.4122,-51.3648,-130.1360,-487.8682, 0.0000, 0.0000, 0.0000
06-Feb-2019 10:36:13.028, 0.4867,-0.8040, 0.1974,-0.0645,-0.0010,-0.0291, 0.0514,-0.0326,-0.0126, 1.9607, 0.9325, 2.9063,50.104382,-122.940341, 0.0075, 146.0077, 843.584656, 6.0, 3.0,Walking,High, 92.3343,-0.4122,-50.9147,-130.2081,-488.0960, 0.0000, 0.0000, 0.0000
06-Feb-2019 10:36:13.147, 0.5737,-0.8656, 0.2708, 0.0210,-0.0686, 0.0237, 0.1288,-0.2092,-0.1467, 1.9466, 0.9195, 2.8999,50.104382,-122.940341, 0.0075, 147.3585, 843.584656, 6.0, 3.0,Walking,High, 92.3343,-0.4122,-50.0933,-129.6768,-488.0229, 0.0000, 0.0000, 0.0000
06-Feb-2019 10:36:13.228, 0.5772,-0.8255, 0.2667,-0.0187,-0.0578, 0.0309, 0.3253,-0.0713,-0.4395, 1.9476, 0.8751, 2.8794,50.104382,-122.940341, 0.0013, 147.3585, 843.600891, 6.0, 3.0,Walking,High, 92.3343,-0.4122,-48.1479,-128.6848,-486.8286, 0.0000, 0.0000, 0.0000
06-Feb-2019 10:36:13.315, 0.5114,-0.6577, 0.2203,-0.1209, 0.1244,-0.0407,-0.0336, 0.1632,-0.1000, 1.9559, 0.8552, 2.8796,50.104382,-122.940341, 0.0013, 148.4299, 843.600891, 6.0, 3.0,Walking,High, 92.3343,-0.4122,-47.7748,-128.3062,-486.4538, 0.0000, 0.0000, 0.0000
06-Feb-2019 10:36:13.414, 0.5728,-0.7412, 0.2812,-0.0310, 0.0046, 0.0062, 0.0286, 0.1169, 0.0685, 1.9864, 0.8533, 2.8651,50.104382,-122.940341, 0.0013, 148.4299, 843.600891, 6.0, 3.0,Walking,High, 92.3343,-0.4122,-48.2251,-128.2344,-486.3760, 0.0000, 0.0000, 0.0000
06-Feb-2019 10:36:13.513, 0.5953,-0.7651, 0.2941, 0.0091,-0.0232, 0.0166, 0.1032, 0.1431, 0.0178, 2.0100, 0.8568, 2.8552,50.104382,-122.940341, 0.0013, 148.4299, 843.600891, 6.0, 3.0,Walking,High, 92.3343,-0.4122,-48.8985,-128.3134,-485.8477, 0.0000, 0.0000, 0.0000
06-Feb-2019 10:36:13.613, 0.5406,-0.7760, 0.3129,-0.0306,-0.0505, 0.0324,-0.0699, 0.0481, 0.0775, 2.0283, 0.8615, 2.8500,50.104382,-122.940341, 0.0013, 147.3475, 843.600891, 6.0, 3.0,Walking,High, 92.3343,-0.4122,-49.2727,-128.3155,-485.4706, 0.0000, 0.0000, 0.0000
06-Feb-2019 10:36:13.712, 0.5087,-0.7678, 0.2868,-0.0392,-0.0001,-0.0095,-0.1996, 0.1418, 0.1399, 2.0424, 0.8792, 2.8587,50.104382,-122.940341, 0.0013, 145.9363, 843.600891, 6.0, 3.0,Walking,High, 92.3343,-0.4122,-50.3186,-128.9235,-485.5429, 0.0000, 0.0000, 0.0000
06-Feb-2019 10:36:13.811, 0.5972,-0.7724, 0.2997, 0.0193, 0.0066, 0.0080, 0.0671,-0.1228,-0.0457, 2.0377, 0.8912, 2.8672,50.104382,-122.940341, 0.0013, 144.8823, 843.600891, 6.0, 3.0,Walking,High, 92.3343,-0.4122,-50.9172,-129.3798,-486.4419, 0.0000, 0.0000, 0.0000
06-Feb-2019 10:36:13.910, 0.5403,-0.7597, 0.2506,-0.0259, 0.0229,-0.0339,-0.1376, 0.2604,-0.0759, 2.0424, 0.8885, 2.8741,50.104382,-122.940341, 0.0013, 144.8823, 843.600891, 6.0, 3.0,Walking,High, 92.3343,-0.4122,-50.7675,-129.3033,-486.2923, 0.0000, 0.0000, 0.0000
06-Feb-2019 10:36:14.009, 0.4671,-0.7803, 0.3017,-0.0936,-0.0251, 0.0349,-0.1502, 0.1115,-0.1177, 2.0264, 0.8855, 2.9139,50.104382,-122.940341, 0.0013, 143.4449, 843.600891, 6.0, 3.0,Walking,High, 92.3343,-0.4122,-50.5413,-129.6026,-486.7451, 0.0000, 0.0000, 0.0000
06-Feb-2019 10:36:14.142, 0.5444,-0.7446, 0.2930,-0.0330,-0.0114, 0.0028,-0.1476, 0.1870,-0.1080, 2.0257, 0.8794, 2.9426,50.104382,-122.940341, 0.0013, 142.2287, 843.600891, 6.0, 3.0,Walking,High, 92.3343,-0.4122,-50.4655,-129.9033,-487.4220, 0.0000, 0.0000, 0.0000
06-Feb-2019 10:36:14.224, 0.4550,-0.6791, 0.2914,-0.1322, 0.1082,-0.0013,-0.3336, 0.4883, 0.0780, 2.0314, 0.8857, 2.9733,50.104382,-122.940342, 0.0051, 141.0001, 843.599915, 6.0, 3.0,Walking,High, 92.3343,-0.4122,-51.3622,-130.5110,-487.8701, 0.0000, 0.0000, 0.0000
06-Feb-2019 10:36:14.307, 0.3494,-0.7158, 0.2383,-0.1399, 0.1160,-0.0577,-1.0720, 1.4505, 1.0135, 2.1050, 0.9542, 2.9966,50.104382,-122.940342, 0.0051, 135.4824, 843.599915, 6.0, 3.0,Walking,High, 92.3343,-0.4122,-55.1826,-131.4415,-488.8287, 0.0000, 0.0000, 0.0000
06-Feb-2019 10:36:14.407, 0.3978,-1.0162, 0.1695, 0.0728,-0.0674,-0.0295,-1.7322, 0.8259, 1.0720, 2.1225, 1.1617, 3.1381,50.104382,-122.940342, 0.0051, 123.6865, 843.599915, 6.0, 3.0,Walking,High, 92.3343,-0.4122,-62.3740,-134.1308,-493.9776, 0.0000, 0.0000, 0.0000
06-Feb-2019 10:36:14.506, 0.2995,-1.1745, 0.2239, 0.0408,-0.2356, 0.1269,-0.2284, 0.1191, 0.1717, 1.9357, 1.2706,-2.8994,50.104382,-122.940342, 0.0051, 117.0226, 843.599915, 6.0, 3.0,Walking,High, 92.3343,-0.4122,-67.4007,-135.9831,-501.3092, 0.0000, 0.0000, 0.0000
06-Feb-2019 10:36:14.606, 0.2898,-0.9435, 0.0447, 0.0247,-0.0119,-0.0703, 0.0925, 0.1966,-0.0354, 2.0197, 1.2615,-2.9884,50.104382,-122.940342, 0.0051, 117.0226, 843.599915, 6.0, 3.0,Walking,High, 92.3343,-0.4122,-67.6258,-135.7583,-500.5569, 0.0000, 0.0000, 0.0000
06-Feb-2019 10:36:14.705, 0.2916,-0.9359, 0.1426, 0.0059, 0.0042, 0.0338,-0.0227,-0.1376, 0.0412, 1.9714, 1.2680,-2.9543,50.104382,-122.940342, 0.0051, 117.0226, 843.599915, 6.0, 3.0,Walking,High, 92.3343,-0.4122,-67.4765,-135.6823,-500.6323, 0.0000, 0.0000, 0.0000
06-Feb-2019 10:36:14.804, 0.1999,-0.9441, 0.1066,-0.0492,-0.0124,-0.0280, 0.0432,-0.2144,-0.0513, 2.0106, 1.2645,-2.9991,50.104382,-122.940342, 0.0051, 117.0226, 843.599915, 6.0, 3.0,Walking,High, 92.3343,-0.4122,-67.4767,-135.5314,-500.1815, 0.0000, 0.0000, 0.0000
06-Feb-2019 10:36:14.903, 0.2032,-0.9320, 0.0958,-0.0306, 0.0184,-0.0286,-0.1281,-0.1329, 0.0385, 1.9962, 1.2706,-2.9913,50.104382,-122.940342, 0.0051, 118.0662, 843.599915, 6.0, 3.0,Walking,High, 92.3343,-0.4122,-67.4022,-135.4559,-500.1816, 0.0000, 0.0000, 0.0000
06-Feb-2019 10:36:15.002, 0.2622,-0.9356, 0.0920, 0.0374, 0.0385,-0.0168,-0.1191,-0.1463,-0.0339, 1.9754, 1.2837,-2.9751,50.104382,-122.940342, 0.0051, 118.0662, 843.599915, 6.0, 3.0,Walking,High, 92.3343,-0.4122,-68.0000,-135.8358,-500.4052, 0.0000, 0.0000, 0.0000
06-Feb-2019 10:36:15.140, 0.2300,-0.9166, 0.0738, 0.0078, 0.0384,-0.0493, 0.1257, 0.0073,-0.0292, 1.9847, 1.2821,-2.9895,50.104382,-122.940342, 0.0051, 118.0662, 843.599915, 6.0, 3.0,Walking,High, 92.3343,-0.4122,-67.9260,-135.6853,-500.4048, 0.0000, 0.0000, 0.0000
06-Feb-2019 10:36:15.227, 0.2551,-1.0004, 0.1389, 0.0056,-0.0208,-0.0085, 0.0861, 0.0122, 0.0068, 2.0030, 1.2778,-3.0126,50.104380,-122.940342, 0.0039, 118.0662, 843.595215, 6.0, 3.0,Walking,High, 92.3343,-0.4122,-68.0028,-135.2345,-499.7272, 0.0000, 0.0000, 0.0000
06-Feb-2019 10:36:15.300, 0.2202,-0.9559, 0.1189,-0.0552, 0.0180,-0.0210,-0.0660, 0.0114,-0.0174, 2.0201, 1.2728,-3.0292,50.104380,-122.940342, 0.0039, 119.1140, 843.595215, 6.0, 3.0,Walking,High, 92.3343,-0.4122,-67.6264,-135.3058,-499.2796, 0.0000, 0.0000, 0.0000
06-Feb-2019 10:36:15.400, 0.2289,-0.9688, 0.1384,-0.0417, 0.0013, 0.0115,-0.0446,-0.0066,-0.0120, 2.0100, 1.2742,-3.0117,50.104380,-122.940342, 0.0039, 119.1140, 843.595215, 6.0, 3.0,Walking,High, 92.3343,-0.4122,-67.7007,-135.5322,-499.7303, 0.0000, 0.0000, 0.0000
06-Feb-2019 10:36:15.499, 0.2304,-0.9928, 0.1450,-0.0305,-0.0385, 0.0138,-0.0747, 0.0326, 0.0008, 2.0033, 1.2759,-3.0009,50.104380,-122.940342, 0.0039, 119.1140, 843.595215, 6.0, 3.0,Walking,High, 92.3342,-0.4042,-67.7008,-135.6078,-500.0307, 0.0000, 0.0000, 0.0000
06-Feb-2019 10:36:15.598, 0.2391,-0.9395, 0.1077,-0.0211, 0.0091,-0.0129,-0.0659,-0.0132, 0.0103, 2.0044, 1.2796,-2.9955,50.104380,-122.940342, 0.0039, 118.1025, 843.595215, 6.0, 3.0,Walking,High, 92.3342,-0.4042,-67.7753,-135.6834,-500.0307, 0.0000, 0.0000, 0.0000
06-Feb-2019 10:36:15.697, 0.2540,-0.9517, 0.1180,-0.0101, 0.0043, 0.0098, 0.0485,-0.1052, 0.0160, 2.0021, 1.2816,-2.9968,50.104380,-122.940342, 0.0039, 118.1025, 843.595215, 6.0, 3.0,Walking,High, 92.3342,-0.4042,-68.0754,-135.6858,-500.1040, 0.0000, 0.0000, 0.0000
06-Feb-2019 10:36:15.796, 0.2548,-0.9779, 0.1264,-0.0199, 0.0130, 0.0077, 0.1031,-0.2578,-0.0394, 2.0077, 1.2781,-3.0221,50.104380,-122.940342, 0.0039, 118.1025, 843.595215, 6.0, 3.0,Walking,High, 92.3342,-0.4042,-67.8511,-135.4582,-499.6541, 0.0000, 0.0000, 0.0000
06-Feb-2019 10:36:15.896, 0.3655,-1.0603, 0.1848, 0.0513,-0.1066, 0.0296, 0.6121,-0.9412,-0.8317, 1.9927, 1.2344,-3.0598,50.104380,-122.940342, 0.0039, 120.3620, 843.595215, 6.0, 3.0,Walking,High, 92.3342,-0.4042,-65.5990,-135.2880,-498.0157, 0.0000, 0.0000, 0.0000
06-Feb-2019 10:36:15.995, 0.3377,-0.9500, 0.2111,-0.0857,-0.0718, 0.0181, 1.1563,-1.2001,-1.1874, 2.0036, 1.0917, 3.0992,50.104380,-122.940342, 0.0039, 128.2529, 843.595215, 6.0, 3.0,Walking,High, 92.3342,-0.4042,-60.1236,-134.2644,-494.2157, 0.0000, 0.0000, 0.0000
06-Feb-2019 10:36:16.146, 0.4098,-0.8221, 0.1335,-0.0870, 0.0865,-0.0810, 0.4226,-0.2084,-0.5639, 1.9865, 0.9593, 3.0178,50.104380,-122.940342, 0.0039, 132.7748, 843.595215, 6.0, 3.0,Walking,High, 92.3342,-0.4042,-52.7848,-131.4257,-489.8918, 0.0000, 0.0000, 0.0000
06-Feb-2019 10:36:16.226, 0.4557,-0.6945, 0.1927,-0.0358, 0.0511, 0.0161,-0.3259,-0.0161,-0.1316, 1.9554, 0.9481, 3.0541,50.104380,-122.940343, 0.0134, 137.2273, 843.595886, 6.0, 3.0,Walking,High, 92.3342,-0.4042,-52.2552,-132.1723,-490.1985, 0.0000, 0.0000, 0.0000
06-Feb-2019 10:36:16.293, 0.5173,-0.8239, 0.2365,-0.0051,-0.0162, 0.0332, 0.1664,-0.1594,-0.0644, 1.9376, 0.9373, 3.0670,50.104380,-122.940343, 0.0134, 137.2273, 843.595886, 6.0, 3.0,Walking,High, 92.3342,-0.4042,-51.5076,-131.9425,-490.5764, 0.0000, 0.0000, 0.0000
06-Feb-2019 10:36:16.392, 0.5731,-0.7628, 0.2209, 0.0171, 0.0376, 0.0018, 0.0048,-0.0401,-0.0554, 1.9382, 0.9344, 3.0652,50.104380,-122.940343, 0.0134, 137.2273, 843.595886, 6.0, 3.0,Walking,High, 92.3342,-0.4042,-51.1311,-132.1648,-490.6546, 0.0000, 0.0000, 0.0000
06-Feb-2019 10:36:16.492, 0.5625,-0.8110, 0.2136,-0.0173,-0.0164,-0.0135,-0.1180, 0.1409,-0.0046, 1.9426, 0.9382, 3.0752,50.104380,-122.940343, 0.0134, 137.2273, 843.595886, 6.0, 3.0,Walking,High, 92.3342,-0.4042,-51.5049,-132.3175,-490.5783, 0.0000, 0.0000, 0.0000
06-Feb-2019 10:36:16.592, 0.5251,-0.7731, 0.2346,-0.0422,-0.0050, 0.0462, 0.0439,-0.1655,-0.0469, 1.9195, 0.9339, 3.0943,50.104380,-122.940343, 0.0134, 136.2102, 843.595886, 6.0, 3.0,Walking,High, 92.3342,-0.4042,-50.9074,-132.0889,-491.0305, 0.0000, 0.0000, 0.0000
06-Feb-2019 10:36:16.717, 0.5624,-0.7878, 0.1998,-0.0307, 0.0007,-0.0292, 0.0606,-0.1143,-0.0446, 1.9184, 0.9249, 3.0739,50.104380,-122.940343, 0.0134, 137.4611, 843.595886, 6.0, 3.0,Walking,High, 92.3342,-0.4042,-50.3834,-131.9348,-490.9576, 0.0000, 0.0000, 0.0000
06-Feb-2019 10:36:16.790, 0.6123,-0.8403, 0.2301, 0.0258,-0.0386, 0.0334, 0.0711,-0.0383,-0.1137, 1.9097, 0.9185, 3.0657,50.104380,-122.940343, 0.0134, 138.6552, 843.595886, 6.0, 3.0,Walking,High, 92.3342,-0.4042,-50.0845,-131.7071,-490.7331, 0.0000, 0.0000, 0.0000
06-Feb-2019 10:36:16.889, 0.4918,-0.7917, 0.1959,-0.1014,-0.0369,-0.0038, 0.0809,-0.1763,-0.1799, 1.9049, 0.8974, 3.0507,50.104380,-122.940343, 0.0134, 139.9283, 843.595886, 6.0, 3.0,Walking,High, 92.3342,-0.4042,-48.9615,-131.3985,-490.6628, 0.0000, 0.0000, 0.0000
06-Feb-2019 10:36:16.988, 0.5486,-0.7767, 0.1452,-0.0467, 0.0209,-0.0659,-0.0101, 0.0369, 0.0586, 1.9117, 0.8941, 3.0392,50.104380,-122.940343, 0.0134, 139.9283, 843.595886, 6.0, 3.0,Walking,High, 92.3342,-0.4042,-48.6634,-130.9450,-489.9871, 0.0000, 0.0000, 0.0000
06-Feb-2019 10:36:17.141, 0.5593,-0.8449, 0.2400,-0.0706, 0.0646,-0.0194,-0.1078,-0.1434, 0.0344, 1.8936, 0.9079, 3.0394,50.104380,-122.940343, 0.0134, 141.0786, 843.595886, 6.0, 3.0,Walking,High, 92.3342,-0.4042,-48.5875,-131.0945,-490.0633, 0.0000, 0.0000, 0.0000
06-Feb-2019 10:36:17.226, 0.5474,-0.7590, 0.1386,-0.0614, 0.0926,-0.0465,-0.2566, 0.1837, 0.1908, 1.9008, 0.9311, 3.0547,50.104380,-122.940344, 0.0149, 141.0786, 843.589722, 6.0, 3.0,Walking,High, 92.3342,-0.4042,-49.7841,-131.7044,-490.5098, 0.0000, 0.0000, 0.0000
06-Feb-2019 10:36:17.286, 0.5810,-0.8268, 0.1510, 0.0277, 0.0172,-0.0364,-0.7261, 0.4840, 0.4383, 1.9052, 0.9713, 3.0927,50.104380,-122.940344, 0.0149, 138.0334, 843.589722, 6.0, 3.0,Walking,High, 92.3340,-0.3831,-50.9053,-132.3889,-491.0320, 0.0000, 0.0000, 0.0000
06-Feb-2019 10:36:17.385, 0.6591,-0.9689, 0.2209, 0.1654,-0.0848, 0.0674,-0.5403, 0.3400, 0.1087, 1.8582, 1.0286,-3.0793,50.104380,-122.940344, 0.0149, 133.3084, 843.589722, 6.0, 3.0,Walking,High, 92.3340,-0.3831,-53.8984,-134.3682,-494.4754, 0.0000, 0.0000, 0.0000
06-Feb-2019 10:36:17.484, 0.4180,-0.7639, 0.2115,-0.0790, 0.0576, 0.0941, 0.2181,-0.0942,-0.0577, 1.8422, 1.0229,-3.0583,50.104380,-122.940344, 0.0149, 132.1922, 843.589722, 6.0, 3.0,Walking,High, 92.3340,-0.3831,-53.8228,-134.6691,-495.2273, 0.0000, 0.0000, 0.0000
06-Feb-2019 10:36:17.584, 0.4868,-0.7514, 0.1794, 0.0147, 0.1021, 0.0310, 0.2048, 0.0306, 0.0671, 1.8687, 1.0254,-3.0860,50.104380,-122.940344, 0.0149, 132.1922, 843.589722, 6.0, 3.0,Walking,High, 92.3340,-0.3831,-54.4233,-134.3721,-494.4725, 0.0000, 0.0000, 0.0000
06-Feb-2019 10:36:17.683, 0.4601,-0.8938, 0.1593,-0.0205,-0.0364, 0.0043, 0.2231,-0.0109, 0.2834, 1.9116, 1.0351, 3.1411,50.104380,-122.940344, 0.0149, 132.1922, 843.589722, 6.0, 3.0,Walking,High, 92.3340,-0.3831,-54.6468,-134.3723,-493.7213, 0.0000, 0.0000, 0.0000
06-Feb-2019 10:36:17.782, 0.5151,-0.7767, 0.1557, 0.0301, 0.0870,-0.0243, 0.0116,-0.3515, 0.0740, 1.9176, 1.0491, 3.1098,50.104380,-122.940344, 0.0149, 133.2920, 843.589722, 6.0, 3.0,Walking,High, 92.3340,-0.3831,-55.5517,-133.5532,-493.2623, 0.0000, 0.0000, 0.0000
06-Feb-2019 10:36:17.882, 0.3998,-0.8990, 0.1663,-0.0659,-0.0693, 0.0293, 0.3909,-0.3285,-0.0476, 1.9058, 1.0427, 3.0658,50.104380,-122.940344, 0.0149, 135.8809, 843.589722, 6.0, 3.0,Walking,High, 92.3340,-0.3831,-55.1002,-133.6993,-493.0405, 0.0000, 0.0000, 0.0000
06-Feb-2019 10:36:17.981, 0.3924,-0.8273, 0.1062,-0.0727, 0.0310,-0.0557, 0.2863, 0.0006,-0.0007, 1.9210, 1.0237, 3.0023,50.104380,-122.940344, 0.0149, 139.3136, 843.589722, 6.0, 3.0,Walking,High, 92.3340,-0.3831,-53.5284,-132.7844,-491.4695, 0.0000, 0.0000, 0.0000
06-Feb-2019 10:36:18.128, 0.4494,-0.9424, 0.1507,-0.0303,-0.0828,-0.0250,-0.0153,-0.1676, 0.0848, 1.9218, 1.0346, 2.9949,50.104380,-122.940344, 0.0149, 140.6160, 843.589722, 6.0, 3.0,Walking,High, 92.3340,-0.3831,-53.6042,-132.6347,-491.3184, 0.0000, 0.0000, 0.0000
06-Feb-2019 10:36:18.227, 0.4025,-0.9651, 0.1848,-0.0029, 0.0170,-0.0405,-0.0542, 0.1991, 0.1258, 1.9464, 1.0480, 2.9782,50.104380,-122.940344, 0.0022, 140.6160, 843.575317, 6.0, 3.0,Walking,High, 92.3340,-0.3831,-54.3547,-132.5653,-491.3139, 0.0000, 0.0000, 0.0000
06-Feb-2019 10:36:18.279, 0.4405,-0.8992, 0.1989,-0.0389,-0.0207, 0.0041, 0.0962,-0.6194,-0.2893, 1.9223, 1.0389, 2.9774,50.104380,-122.940344, 0.0022, 140.6160, 843.575317, 6.0, 3.0,Walking,High, 92.3340,-0.3831,-54.3517,-132.8644,-490.8654, 0.0000, 0.0000, 0.0000
06-Feb-2019 10:36:18.378, 0.4559,-0.9595, 0.1560,-0.0705,-0.1229,-0.0272, 0.5932,-0.0122,-0.4583, 1.9374, 0.9860, 2.9387,50.104380,-122.940344, 0.0022, 142.9238, 843.575317, 6.0, 3.0,Walking,High, 92.3340,-0.3831,-51.8080,-131.6431,-489.7483, 0.0000, 0.0000, 0.0000
06-Feb-2019 10:36:18.477, 0.4296,-0.7393, 0.1175,-0.1617, 0.0772,-0.1628,-0.5022, 0.2887,-0.1937, 1.9949, 0.9409, 2.9275,50.104380,-122.940344, 0.0022, 142.9369, 843.575317, 6.0, 3.0,Walking,High, 92.3340,-0.3831,-50.9124,-130.5834,-488.2480, 0.0000, 0.0000, 0.0000
06-Feb-2019 10:36:18.577, 0.5051,-0.8187, 0.2337,-0.0314,-0.0158, 0.0055,-0.3866, 0.5965,-0.3045, 1.9685, 0.9347, 3.0247,50.104380,-122.940344, 0.0022, 138.9125, 843.575317, 6.0, 3.0,Walking,High, 92.3340,-0.3831,-51.1341,-131.4880,-489.7513, 0.0000, 0.0000, 0.0000
06-Feb-2019 10:36:18.676, 0.6307,-0.8484, 0.2278, 0.0552,-0.0428, 0.0023,-0.4110, 0.2043,-0.6217, 1.9407, 0.9196, 3.1181,50.104380,-122.940344, 0.0022, 135.6184, 843.575317, 6.0, 3.0,Walking,High, 92.3340,-0.3831,-50.9806,-132.2387,-490.6559, 0.0000, 0.0000, 0.0000
06-Feb-2019 10:36:18.775, 0.5036,-0.7482, 0.1921,-0.1125, 0.0252,-0.0280,-0.1587, 0.8177,-0.4201, 1.9294, 0.8768,-3.0813,50.104380,-122.940344, 0.0022, 131.3496, 843.575317, 6.0, 3.0,Walking,High, 92.3340,-0.3831,-49.1805,-132.6026,-491.8676, 0.0000, 0.0000, 0.0000
06-Feb-2019 10:36:18.874, 0.5922,-0.7294, 0.1800,-0.0477, 0.0436,-0.0844,-0.8878, 0.6740,-0.2237, 1.9489, 0.8721,-2.9908,50.104380,-122.940344, 0.0022, 125.8048, 843.575317, 6.0, 3.0,Walking,High, 92.3340,-0.3831,-49.8546,-132.8334,-492.2400, 0.0000, 0.0000, 0.0000
06-Feb-2019 10:36:18.974, 0.6414,-0.7891, 0.3089, 0.0501,-0.0154, 0.0829,-0.8766, 0.6039,-0.2345, 1.9130, 0.8815,-2.8532,50.104380,-122.940344, 0.0022, 119.3922, 843.575317, 6.0, 3.0,Walking,High, 92.3340,-0.3831,-50.4499,-134.4948,-495.6950, 0.0000, 0.0000, 0.0000
06-Feb-2019 10:36:19.142, 0.7001,-0.7774, 0.2790, 0.0589, 0.0682, 0.0157,-0.3769, 0.2871,-0.3476, 1.8738, 0.8555,-2.7190,50.104380,-122.940344, 0.0022, 115.3168, 843.575317, 6.0, 3.0,Walking,High, 92.3340,-0.3831,-49.0276,-134.8644,-498.3297, 0.0000, 0.0000, 0.0000
06-Feb-2019 10:36:19.223, 0.6545,-0.6390, 0.1710, 0.0603, 0.1225,-0.0851,-0.0859, 0.5034,-0.2904, 1.9041, 0.8338,-2.7008,50.104380,-122.940344, 0.0022, 112.6104, 843.575317, 6.0, 3.0,Walking,High, 92.3340,-0.3831,-48.2004,-135.1580,-498.2607, 0.0000, 0.0000, 0.0000
06-Feb-2019 10:36:19.272, 0.7068,-0.6813, 0.1762, 0.0828, 0.0616,-0.0863,-0.3444, 0.8053,-0.3082, 1.9374, 0.8167,-2.6867,50.104380,-122.940344, 0.0017, 109.9839, 843.576477, 6.0, 3.0,Walking,High, 92.3340,-0.3831,-48.3503,-134.9325,-497.4337, 0.0000, 0.0000, 0.0000
06-Feb-2019 10:36:19.371, 0.6709,-0.6398, 0.3059, 0.0119, 0.0797, 0.0723,-0.2654, 0.6399,-0.1323, 1.9362, 0.8112,-2.6018,50.104380,-122.940344, 0.0017, 104.3980, 843.576477, 6.0, 3.0,Walking,High, 92.3340,-0.3831,-48.0511,-135.2331,-498.8619, 0.0000, 0.0000, 0.0000
06-Feb-2019 10:36:19.470, 0.6005,-0.7509, 0.2074,-0.0111,-0.0155,-0.0646,-0.4467, 0.6009,-0.0129, 1.9741, 0.8109,-2.5744,50.104380,-122.940344, 0.0017, 101.9024, 843.576477, 6.0, 3.0,Walking,High, 92.3340,-0.3831,-48.1255,-135.3841,-499.0872, 0.0000, 0.0000, 0.0000
06-Feb-2019 10:36:19.569, 0.6597,-0.6653, 0.2527, 0.0167, 0.0880, 0.0026,-0.4830, 0.4774,-0.0452, 1.9548, 0.8285,-2.4930,50.104380,-122.940344, 0.0017, 97.8974, 843.576477, 6.0, 3.0,Walking,High, 92.3340,-0.3831,-48.5011,-135.9163,-501.2628, 0.0000, 0.0000, 0.0000
06-Feb-2019 10:36:19.669, 0.3221,-0.6811, 0.2521,-0.2336, 0.0785, 0.0280,-1.2287, 0.9961, 0.8479, 1.9592, 0.8830,-2.4039,50.104380,-122.940344, 0.0017, 91.9652, 843.576477, 6.0, 3.0,Walking,High, 92.3340,-0.3831,-49.7009,-136.4539,-503.0589, 0.0000, 0.0000, 0.0000
06-Feb-2019 10:36:19.768, 0.3366,-0.9020, 0.1888,-0.1047, 0.0075, 0.0338,-1.6566, 0.5412, 2.2362, 1.9306, 1.0896,-2.2644,50.104380,-122.940344, 0.0017, 82.9164, 843.576477, 6.0, 3.0,Walking,High, 92.3340,-0.3831,-58.7784,-138.1110,-510.0673, 0.0000, 0.0000, 0.0000
06-Feb-2019 10:36:19.867, 0.5152,-1.1714, 0.2117, 0.1835,-0.1943, 0.0828,-0.5588, 1.0327, 0.7000, 1.7525, 1.2935,-2.0320,50.104380,-122.940344, 0.0017, 77.0646, 843.576477, 6.0, 3.0,Walking,High, 92.3340,-0.3831,-65.9192,-137.4256,-515.5746, 0.0000, 0.0000, 0.0000
06-Feb-2019 10:36:19.966, 0.2048,-0.9194,-0.0705,-0.0040, 0.0392,-0.1086,-0.6195, 0.5642,-0.0969, 1.6163, 1.3065,-1.7689,50.104380,-122.940344, 0.0017, 69.7204, 843.576477, 6.0, 3.0,Walking,High, 92.3340,-0.3831,-66.0836,-136.6105,-519.9196, 0.0000, 0.0000, 0.0000
06-Feb-2019 10:36:20.142, 0.1541,-1.0800,-0.0010,-0.0866,-0.1238,-0.0014, 0.0426,-0.4905, 0.2135, 1.4956, 1.3298,-1.6515,50.104380,-122.940344, 0.0017, 68.4318, 843.576477, 6.0, 3.0,Walking,High, 92.3341,-0.3937,-66.8391,-136.1685,-521.1133, 0.0000, 0.0000, 0.0000
06-Feb-2019 10:36:20.226, 0.2805,-1.0172,-0.1274,-0.0457,-0.0433,-0.0849,-0.1903, 0.5498, 0.4624, 1.4634, 1.3543,-1.6465,50.104380,-122.940344, 0.0017, 69.7597, 843.576477, 6.0, 3.0,Walking,High, 92.3341,-0.3937,-68.6437,-135.4316,-520.8746, 0.0000, 0.0000, 0.0000
06-Feb-2019 10:36:20.264, 0.2873,-1.0320, 0.0024, 0.0416, 0.0208, 0.0122, 0.5519,-2.7862,-0.3825, 1.5160, 1.3413,-1.8538,50.104381,-122.940343, 0.0136, 75.1068, 843.571045, 6.0, 3.0,Walking,High, 92.3341,-0.3937,-68.8577,-136.3284,-518.4780, 0.0000, 0.0000, 0.0000
06-Feb-2019 10:36:20.363,-0.0098,-0.7255, 0.1310,-0.2350, 0.1950, 0.1399, 0.1913,-0.8735, 0.1560, 1.4906, 1.3347,-2.0095,50.104381,-122.940343, 0.0136, 87.8167, 843.571045, 6.0, 3.0,Walking,High, 92.3341,-0.3937,-69.6743,-136.4017,-514.5739, 0.0000, 0.0000, 0.0000
06-Feb-2019 10:36:20.463, 0.2728,-1.0095,-0.1186, 0.0854,-0.0406,-0.1009, 0.2823,-1.1993, 0.0792, 1.5360, 1.3629,-2.1557,50.104381,-122.940343, 0.0136, 93.3488, 843.571045, 6.0, 3.0,Walking,High, 92.3341,-0.3937,-70.7176,-136.7805,-512.5450, 0.0000, 0.0000, 0.0000
06-Feb-2019 10:36:20.562, 0.2142,-0.9723,-0.1188, 0.0149,-0.0200,-0.0915,-0.2792, 0.5038, 0.0240, 1.5054, 1.3696,-2.1308,50.104381,-122.940343, 0.0136, 96.6195, 843.571045, 6.0, 3.0,Walking,High, 92.3341,-0.3937,-71.3975,-136.1107,-512.6129, 0.0000, 0.0000, 0.0000
06-Feb-2019 10:36:20.662, 0.2943,-0.9323,-0.0307, 0.1073, 0.0567, 0.0068,-0.0462,-0.4636, 0.0756, 1.4012, 1.3611,-2.0357,50.104381,-122.940343, 0.0136, 95.4103, 843.571045, 6.0, 3.0,Walking,High, 92.3341,-0.3937,-70.8721,-136.3330,-513.2169, 0.0000, 0.0000, 0.0000
06-Feb-2019 10:36:20.761, 0.2166,-0.8934,-0.0855, 0.0206, 0.0591,-0.0559, 0.1835,-0.6297, 0.1234, 1.3884, 1.3839,-2.0653,50.104381,-122.940343, 0.0136, 96.8669, 843.571045, 6.0, 3.0,Walking,High, 92.3341,-0.3937,-72.2965,-136.1165,-512.1580, 0.0000, 0.0000, 0.0000
06-Feb-2019 10:36:20.860, 0.1968,-1.0441,-0.0620, 0.0529,-0.0305,-0.0628, 0.5661,-1.5997, 0.0405, 1.5347, 1.3899,-2.3322,50.104381,-122.940343, 0.0136, 103.0812, 843.571045, 6.0, 3.0,Walking,High, 92.3341,-0.3937,-72.0652,-136.1840,-509.2346, 0.0000, 0.0000, 0.0000
06-Feb-2019 10:36:20.959, 0.0178,-0.8608,-0.0141,-0.2951, 0.0118,-0.0595,-0.2551, 0.1949, 0.2888, 1.5798, 1.4020,-2.4431,50.104381,-122.940343, 0.0136, 109.2850, 843.571045, 6.0, 3.0,Walking,High, 92.3341,-0.3937,-72.0596,-136.2538,-506.6850, 0.0000, 0.0000, 0.0000
06-Feb-2019 10:36:21.142, 0.0715,-1.1010,-0.0919,-0.1789,-0.0047, 0.0240,-0.2367,-0.5065,-0.0756, 1.4717, 1.3942,-2.4227,50.104381,-122.940343, 0.0136, 111.6317, 843.571045, 6.0, 3.0,Walking,High, 92.3341,-0.3937,-71.7613,-135.9511,-506.4601, 0.0000, 0.0000, 0.0000
06-Feb-2019 10:36:21.159, 0.0506,-0.9540,-0.0367,-0.0949, 0.0088,-0.0125, 0.1259,-0.3622, 0.0085, 1.4897, 1.3940,-2.4675,50.104381,-122.940343, 0.0136, 114.9681, 843.571045, 6.0, 3.0,Walking,High, 92.3341,-0.3937,-71.7597,-136.0251,-505.9355, 0.0000, 0.0000, 0.0000
06-Feb-2019 10:36:21.258, 0.1172,-1.0573, 0.0062,-0.0240,-0.0831, 0.0286,-0.0358, 0.1330, 0.1662, 1.4892, 1.4073,-2.4759,50.104381,-122.940342, 0.0288, 116.1934, 843.586609, 6.0, 3.0,Walking,High, 92.3341,-0.3937,-72.0578,-136.1010,-505.2592, 0.0000, 0.0000, 0.0000
06-Feb-2019 10:36:21.356, 0.1690,-0.9328,-0.0149, 0.0240, 0.0898,-0.0010, 0.2057,-0.4946,-0.0254, 1.5780, 1.4161,-2.5807,50.104381,-122.940342, 0.0288, 116.1934, 843.586609, 6.0, 3.0,Walking,High, 92.3341,-0.3937,-72.4344,-135.6523,-504.5049, 0.0000, 0.0000, 0.0000
06-Feb-2019 10:36:21.456, 0.1072,-0.9671, 0.0103,-0.0700,-0.0067, 0.0138,-0.2108, 0.2205,-0.0699, 1.5558, 1.4080,-2.5710,50.104381,-122.940342, 0.0288, 117.3436, 843.586609, 6.0, 3.0,Walking,High, 92.3341,-0.3937,-71.9831,-135.6476,-503.8323, 0.0000, 0.0000, 0.0000
06-Feb-2019 10:36:21.555, 0.1334,-0.9720,-0.0038,-0.0333, 0.0278, 0.0225, 0.0910,-0.2068,-0.0415, 1.5193, 1.4064,-2.5219,50.104381,-122.940342, 0.0288, 117.3436, 843.586609, 6.0, 3.0,Walking,High, 92.3341,-0.3937,-71.7594,-135.7227,-504.7339, 0.0000, 0.0000, 0.0000
06-Feb-2019 10:36:21.654, 0.1514,-0.9643, 0.0459,-0.0221, 0.0459, 0.0532, 0.0945,-0.3790,-0.0737, 1.5677, 1.4048,-2.5918,50.104381,-122.940342, 0.0288, 117.3436, 843.586609, 6.0, 3.0,Walking,High, 92.3341,-0.3937,-71.5314,-135.9445,-503.9863, 0.0000, 0.0000, 0.0000
06-Feb-2019 10:36:21.754, 0.1737,-0.9825, 0.0188, 0.0024, 0.0274, 0.0455, 0.0735,-0.2438,-0.1087, 1.5475, 1.4005,-2.6029,50.104381,-122.940342, 0.0288, 120.0393, 843.586609, 6.0, 3.0,Walking,High, 92.3341,-0.3937,-71.1548,-136.0910,-503.6891, 0.0000, 0.0000, 0.0000
06-Feb-2019 10:36:21.853, 0.1417,-0.9783, 0.0108,-0.0328, 0.0043, 0.0267,-0.0351,-0.0655,-0.3135, 1.5180, 1.3869,-2.5915,50.104381,-122.940342, 0.0288, 121.2995, 843.586609, 6.0, 3.0,Walking,High, 92.3341,-0.3937,-70.8531,-136.2382,-503.3915, 0.0000, 0.0000, 0.0000
06-Feb-2019 10:36:21.952, 0.1370,-0.8771,-0.0027,-0.0816, 0.1110, 0.0310, 0.1042,-0.2716,-0.2439, 1.5137, 1.3645,-2.5960,50.104381,-122.940342, 0.0288, 121.2995, 843.586609, 6.0, 3.0,Walking,High, 92.3350,-0.4730,-69.5765,-136.5291,-503.6250, 0.0000, 0.0000, 0.0000
06-Feb-2019 10:36:22.085, 0.2829,-0.9859, 0.0025, 0.0634,-0.0105, 0.0252,-0.0480,-0.2039,-0.1231, 1.4682, 1.3483,-2.5641,50.104381,-122.940342, 0.0288, 122.3255, 843.586609, 6.0, 3.0,Walking,High, 92.3350,-0.4730,-68.5253,-136.8220,-504.0072, 0.0000, 0.0000, 0.0000
06-Feb-2019 10:36:22.153, 0.1107,-1.0003,-0.0317,-0.1100,-0.0112,-0.0174,-0.0603,-0.3011,-0.0807, 1.4522, 1.3371,-2.5933,50.104381,-122.940342, 0.0288, 125.3181, 843.586609, 6.0, 3.0,Walking,High, 92.3350,-0.4730,-67.5497,-136.7384,-503.4122, 0.0000, 0.0000, 0.0000
06-Feb-2019 10:36:22.250, 0.1485,-1.0397,-0.0493,-0.0891,-0.0869,-0.0152, 0.1957,-0.5165,-0.1182, 1.4282, 1.3369,-2.5956,50.104382,-122.940344, 0.0093, 125.3181, 843.586853, 6.0, 3.0,Walking,High, 92.3350,-0.4730,-67.4733,-136.8876,-503.2633, 0.0000, 0.0000, 0.0000
06-Feb-2019 10:36:22.350, 0.1440,-0.8565,-0.0089,-0.1233, 0.0596, 0.0511, 0.2988,-0.3199,-0.1525, 1.4716, 1.3269,-2.6844,50.104382,-122.940344, 0.0093, 128.4135, 843.586853, 6.0, 3.0,Walking,High, 92.3350,-0.4730,-66.5716,-136.8790,-502.3683, 0.0000, 0.0000, 0.0000
06-Feb-2019 10:36:22.449, 0.1939,-0.9504, 0.0287,-0.0869, 0.0131, 0.0516, 0.1357,-0.2611, 0.0226, 1.5194, 1.3217,-2.7826,50.104382,-122.940344, 0.0093, 131.1372, 843.586853, 6.0, 3.0,Walking,High, 92.3350,-0.4730,-65.6704,-136.6444,-500.9471, 0.0000, 0.0000, 0.0000
06-Feb-2019 10:36:22.548, 0.1917,-0.9694,-0.0300,-0.0652,-0.0322,-0.0079, 0.0970,-0.2393,-0.1171, 1.5483, 1.3168,-2.8382,50.104382,-122.940344, 0.0093, 133.7572, 843.586853, 6.0, 3.0,Walking,High, 92.3350,-0.4730,-65.0700,-136.4884,-500.1996, 0.0000, 0.0000, 0.0000
06-Feb-2019 10:36:22.647, 0.1906,-0.9151,-0.0178,-0.0661, 0.0424,-0.0121, 0.3526,-0.8794, 0.0471, 1.5940, 1.3123,-2.9480,50.104382,-122.940344, 0.0093, 136.7033, 843.586853, 6.0, 3.0,Walking,High, 92.3350,-0.4730,-64.1683,-136.3288,-498.7787, 0.0000, 0.0000, 0.0000
06-Feb-2019 10:36:22.746, 0.1506,-1.0371,-0.1395,-0.0927,-0.0746,-0.1252, 0.2122,-0.9798, 0.1591, 1.6125, 1.3303,-3.0840,50.104382,-122.940344, 0.0093, 143.2828, 843.586853, 6.0, 3.0,Walking,High, 92.3350,-0.4730,-63.4171,-136.0199,-497.1313, 0.0000, 0.0000, 0.0000
06-Feb-2019 10:36:22.846, 0.2339,-0.8390,-0.1256,-0.0299, 0.1128,-0.1412, 0.0016,-1.0548,-0.1627, 1.5933, 1.3201, 3.1160,50.104382,-122.940344, 0.0093, 149.0951, 843.586853, 6.0, 3.0,Walking,High, 92.3355,-0.5231,-61.5402,-135.8527,-495.5658, 0.0000, 0.0000, 0.0000
06-Feb-2019 10:36:22.945, 0.3940,-0.9772, 0.0103, 0.1343, 0.0124, 0.0261, 0.0319,-0.9041,-0.2497, 1.4847, 1.3044, 3.1362,50.104382,-122.940344, 0.0093, 154.3155, 843.586853, 6.0, 3.0,Walking,High, 92.3355,-0.5231,-59.8129,-136.2905,-495.9525, 0.0000, 0.0000, 0.0000
06-Feb-2019 10:36:23.145, 0.3556,-1.0540,-0.0972,-0.0021,-0.0562, 0.0450, 0.1223,-1.1843,-0.6801, 1.3460, 1.1462, 2.9786,50.104382,-122.940344, 0.0093, 159.9183, 843.586853, 6.0, 3.0,Walking,High, 92.3355,-0.5231,-49.4717,-134.9373,-495.6276, 0.0000, 0.0000, 0.0000
06-Feb-2019 10:36:23.154, 0.4010,-0.9149,-0.0060,-0.0101,-0.0092, 0.0966, 0.1341,-3.0194,-1.3885, 1.3262, 1.1332, 2.9677,50.104382,-122.940344, 0.0093, 161.5716, 843.586853, 6.0, 3.0,Walking,High, 92.3355,-0.5231,-49.4717,-134.9373,-495.6276, 0.0000, 0.0000, 0.0000
06-Feb-2019 10:36:23.243, 0.2666,-0.4113, 0.0813,-0.2299, 0.4473, 0.2738,-0.1987, 1.1562, 0.4858, 1.2978, 1.0394, 2.8852,50.104381,-122.940345, 0.0076, 179.2114, 843.563721, 6.0, 3.0,Walking,High, 92.3355,-0.5231,-40.4145,-132.9230,-497.4673, 0.0000, 0.0000, 0.0000
06-Feb-2019 10:36:23.342, 0.6560,-0.9419,-0.2141, 0.2001, 0.1077,-0.2112, 1.2335,-0.4698, 1.0056, 1.5278, 1.1303, 2.7246,50.104381,-122.940345, 0.0076, 175.9906, 843.563721, 6.0, 3.0,Walking,High, 92.3355,-0.5231,-44.3803,-133.1704,-493.7718, 0.0000, 0.0000, 0.0000
06-Feb-2019 10:36:23.442, 0.3049,-1.2769, 0.0028,-0.0744,-0.3186,-0.0288,-1.1696,-1.4447,-0.1789, 1.4915, 1.1352, 2.7998,50.104381,-122.940345, 0.0076, 174.3152, 843.563721, 6.0, 3.0,Walking,High, 92.3355,-0.5231,-46.4039,-133.2598,-493.3861, 0.0000, 0.0000, 0.0000
06-Feb-2019 10:36:23.541, 0.0589,-0.6270, 0.0837,-0.3587, 0.3155, 0.1932,-0.2816,-0.9656, 0.1449, 1.3452, 1.1002, 2.8956,50.104381,-122.940345, 0.0076, 175.5984, 843.563721, 6.0, 3.0,Walking,High, 92.3355,-0.5231,-44.9048,-133.7781,-495.6469, 0.0000, 0.0000, 0.0000
06-Feb-2019 10:36:23.640, 0.3951,-1.1153,-0.2082,-0.0449,-0.0915, 0.0035, 0.8277, 0.8924, 1.5430, 1.1596, 1.2242, 3.0447,50.104381,-122.940345, 0.0076, 178.9482, 843.563721, 6.0, 3.0,Walking,High, 92.3355,-0.5231,-50.2967,-135.4722,-497.5007, 0.0000, 0.0000, 0.0000
06-Feb-2019 10:36:23.739, 0.2676,-0.9165,-0.5976,-0.0008,-0.0112,-0.4810,-0.8003, 2.5261, 0.3947, 1.3410, 1.3014, 2.9832,50.104381,-122.940345, 0.0076, 175.9609, 843.563721, 6.0, 3.0,Walking,High, 92.3355,-0.5231,-53.9651,-135.6443,-494.7814, 0.0000, 0.0000, 0.0000
06-Feb-2019 10:36:23.839, 0.3163,-0.6837, 0.0249,-0.2884, 0.4407, 0.5123,-0.2986, 0.6662, 0.4748, 1.0389, 1.2783,-2.8406,50.104381,-122.940345, 0.0076, 164.9456, 843.563721, 6.0, 3.0,Walking,High, 92.3355,-0.5231,-59.5131,-137.4214,-500.0098, 0.0000, 0.0000, 0.0000
06-Feb-2019 10:36:23.938, 0.0148,-1.0668,-0.2977,-0.2665,-0.1164,-0.1682, 0.5126,-0.3574, 0.1170, 1.1197, 1.3050,-2.9339,50.104381,-122.940345, 0.0076, 162.9911, 843.563721, 6.0, 3.0,Walking,High, 92.3355,-0.5231,-59.8878,-137.1218,-498.8062, 0.0000, 0.0000, 0.0000
06-Feb-2019 10:36:24.143, 0.1378,-1.2489,-0.2693,-0.1063,-0.2804,-0.2195,-0.1034, 1.1811,-0.0645, 1.3695, 1.3190, 3.0113,50.104381,-122.940345, 0.0076, 166.1107, 843.563721, 6.0, 3.0,Walking,High, 92.3355,-0.5231,-57.3368,-136.0441,-494.5399, 0.0000, 0.0000, 0.0000
06-Feb-2019 10:36:24.154, 0.1378,-1.2489,-0.2693,-0.0468,-0.0849,-0.2378,-0.1034, 1.1811,-0.0645, 1.3668, 1.3180, 3.0263,50.104381,-122.940345, 0.0076, 168.4285, 843.563721, 6.0, 3.0,Walking,High, 92.3355,-0.5231,-57.3368,-136.0441,-494.5399, 0.0000, 0.0000, 0.0000
06-Feb-2019 10:36:24.250, 0.0971,-1.1453,-0.0054,-0.1611,-0.1821, 0.0700,-0.3588, 0.6835, 0.1539, 1.2868, 1.2985, 3.1285,50.104381,-122.940346, 0.0197, 168.3287, 843.558838, 6.0, 3.1,Walking,High, 92.3355,-0.5231,-57.5574,-136.9477,-495.5182, 0.0000, 0.0000, 0.0000
06-Feb-2019 10:36:24.335, 0.3210,-0.9822,-0.0046,-0.0127, 0.0387, 0.1179,-0.1966, 1.4221,-0.2637, 1.4124, 1.2928,-3.1125,50.104381,-122.940346, 0.0197, 160.5901, 843.558838, 6.0, 3.1,Walking,High, 92.3355,-0.5231,-60.0357,-136.5166,-495.6524, 0.0000, 0.0000, 0.0000
06-Feb-2019 10:36:24.434, 0.2886,-1.1644,-0.0514, 0.0155,-0.2406,-0.0676, 0.0980, 0.6918, 0.3000, 1.4831, 1.2972,-3.0761,50.104381,-122.940346, 0.0197, 153.1882, 843.558838, 6.0, 3.1,Walking,High, 92.3355,-0.5231,-62.1342,-136.8331,-496.0174, 0.0000, 0.0000, 0.0000
06-Feb-2019 10:36:24.534, 0.4512,-1.0566,-0.0424, 0.1279,-0.0864,-0.0241, 0.0708,-1.0694,-0.1496, 1.5259, 1.3251, 3.1391,50.104381,-122.940346, 0.0197, 152.1357, 843.558838, 6.0, 3.1,Walking,High, 92.3355,-0.5231,-62.7328,-136.7606,-495.0388, 0.0000, 0.0000, 0.0000
06-Feb-2019 10:36:24.633, 0.6268,-1.0019,-0.1060, 0.3374, 0.0357,-0.0915, 0.4061,-1.6545,-0.6156, 1.4975, 1.2499, 2.9976,50.104381,-122.940346, 0.0197, 161.1283, 843.558838, 6.0, 3.1,Walking,High, 92.3358,-0.5443,-55.9859,-135.8064,-493.2711, 0.0000, 0.0000, 0.0000
06-Feb-2019 10:36:24.732, 0.2299,-1.0162,-0.0265,-0.0956,-0.0708, 0.1458,-0.1404,-1.1045, 0.9849, 1.2929, 1.2621, 3.0174,50.104381,-122.940346, 0.0197, 171.4241, 843.558838, 6.0, 3.1,Walking,High, 92.3358,-0.5443,-52.8353,-136.1597,-494.1902, 0.0000, 0.0000, 0.0000
06-Feb-2019 10:36:24.831,-0.1198,-1.0366,-0.0120,-0.1893,-0.0648, 0.0565, 0.9665, 2.3040, 0.2561, 1.1890, 1.4158, 3.1357,50.104381,-122.940346, 0.0197, 174.9441, 843.558838, 6.0, 3.1,Walking,High, 92.3358,-0.5443,-60.6292,-136.7411,-493.1753, 0.0000, 0.0000, 0.0000
06-Feb-2019 10:36:24.931, 0.2001,-1.0597,-0.1452, 0.0018,-0.0528,-0.0668,-0.8231,-0.1090,-0.7958, 1.1427, 1.3925,-2.8885,50.104381,-122.940346, 0.0197, 161.8580, 843.558838, 6.0, 3.1,Walking,High, 92.3358,-0.5443,-64.0782,-137.4460,-495.1848, 0.0000, 0.0000, 0.0000
06-Feb-2019 10:36:25.143, 0.0446,-0.9175, 0.0362,-0.1634, 0.0590, 0.0930,-0.0357,-0.4208, 0.0385, 1.3041, 1.3535,-3.0687,50.104381,-122.940346, 0.0197, 160.4495, 843.558838, 6.0, 3.1,Walking,High, 92.3358,-0.5443,-61.3777,-137.4250,-494.8246, 0.0000, 0.0000, 0.0000
06-Feb-2019 10:36:25.152, 0.0446,-0.9175, 0.0362,-0.1484, 0.0372, 0.0831,-0.0357,-0.4208, 0.0385, 1.2968, 1.3527,-3.0669,50.104381,-122.940346, 0.0197, 161.5071, 843.558838, 6.0, 3.1,Walking,High, 92.3358,-0.5443,-60.8548,-137.1211,-494.8259, 0.0000, 0.0000, 0.0000
06-Feb-2019 10:36:25.230, 0.2550,-0.9127,-0.0015, 0.0622, 0.0628, 0.0756,-0.0411,-0.2730,-0.1285, 1.2981, 1.3432,-3.0750,50.104379,-122.940350, 0.1794, 162.6412, 843.544250, 6.0, 3.0,Walking,High, 92.3358,-0.5443,-60.8538,-137.3467,-495.1270, 0.0000, 0.0000, 0.0000
06-Feb-2019 10:36:25.328, 0.3284,-1.0789, 0.0850, 0.0956,-0.0776, 0.1333,-0.2900, 0.3171,-0.1000, 1.2069, 1.3317,-2.9865,50.104379,-122.940350, 0.1794, 162.6412, 843.544250, 6.0, 3.0,Walking,High, 92.3358,-0.5443,-60.3262,-137.8688,-495.6576, 0.0000, 0.0000, 0.0000
06-Feb-2019 10:36:25.429, 0.1901,-0.9056,-0.0881,-0.0658, 0.0676,-0.0022,-0.1821, 0.0375,-0.4248, 1.1923, 1.3013,-2.9636,50.104379,-122.940350, 0.1794, 162.6412, 843.544250, 6.0, 3.0,Walking,High, 92.3358,-0.5443,-59.7996,-138.3163,-496.4127, 0.0000, 0.0000, 0.0000
06-Feb-2019 10:36:25.527, 0.1331,-0.9418, 0.0909,-0.1390, 0.0014, 0.2587,-0.0486,-0.0771, 0.4321, 1.2289, 1.2958,-2.9773,50.104379,-122.940350, 0.1794, 161.2879, 843.544250, 6.0, 3.0,Walking,High, 92.3358,-0.5443,-59.2029,-137.9374,-496.7141, 0.0000, 0.0000, 0.0000
06-Feb-2019 10:36:25.626, 0.1924,-0.9131,-0.1174,-0.0161, 0.0372,-0.0031, 0.1185,-0.1941, 0.7822, 1.0692, 1.3485,-2.8371,50.104379,-122.940350, 0.1794, 161.2879, 843.544250, 6.0, 3.0,Walking,High, 92.3354,-0.5073,-61.3755,-138.3292,-496.9291, 0.0000, 0.0000, 0.0000
06-Feb-2019 10:36:25.725, 0.0339,-1.0366,-0.1581,-0.0488,-0.0985,-0.0380,-0.1407,-0.6215, 0.6320, 0.8324, 1.4072,-2.5939,50.104379,-122.940350, 0.1794, 162.3307, 843.544250, 6.0, 3.0,Walking,High, 92.3354,-0.5073,-66.1029,-138.1406,-497.4271, 0.0000, 0.0000, 0.0000
06-Feb-2019 10:36:25.824,-0.0790,-0.8452,-0.1604,-0.1393, 0.2604, 0.0262,-0.1208,-0.9591, 0.1138, 0.4199, 1.4204,-2.2862,50.104379,-122.940350, 0.1794, 166.8916, 843.544250, 6.0, 3.0,Walking,High, 92.3354,-0.5073,-67.1533,-138.0735,-497.4210, 0.0000, 0.0000, 0.0000
06-Feb-2019 10:36:25.924,-0.0860,-1.0344,-0.2701,-0.1310,-0.0417,-0.1237,-0.2609,-1.3335,-0.0857, 0.2651, 1.3987,-2.2364,50.104379,-122.940350, 0.1794, 172.6600, 843.544250, 6.0, 3.0,Walking,High, 92.3354,-0.5073,-66.3284,-138.0673,-497.4255, 0.0000, 0.0000, 0.0000
06-Feb-2019 10:36:26.145,-0.1331,-0.9873,-0.0547,-0.2195, 0.0058, 0.1777,-0.2040,-2.0142, 0.0891, 0.3115, 1.3541,-2.5082,50.104379,-122.940350, 0.1794, 179.0117, 843.544250, 6.0, 3.0,Walking,High, 92.3354,-0.5073,-64.4519,-138.2783,-497.4369, 0.0000, 0.0000, 0.0000
06-Feb-2019 10:36:26.157,-0.1331,-0.9873,-0.0547,-0.2201, 0.0390, 0.1964,-0.2040,-2.0142, 0.0891, 0.2550, 1.3578,-2.4725,50.104379,-122.940350, 0.1794, 180.7582, 843.544250, 6.0, 3.0,Walking,High, 92.3354,-0.5073,-60.3252,-138.5475,-497.5359, 0.0000, 0.0000, 0.0000
06-Feb-2019 10:36:26.262,-0.1896,-0.9312,-0.1686,-0.1308,-0.0117,-0.0168, 0.4249, 0.3820, 0.6644,-0.1076, 1.4059,-2.0938,50.104383,-122.940356, 0.2748, 189.6482, 843.507080, 6.0, 3.0,Walking,High, 92.3354,-0.5073,-62.8754,-138.1138,-496.0948, 0.0000, 0.0000, 0.0000
06-Feb-2019 10:36:26.321,-0.0358,-1.0076,-0.0616,-0.0235,-0.0400, 0.0664,-0.0544, 1.3936,-0.1459,-0.0607, 1.4170,-2.0653,50.104383,-122.940356, 0.2748, 185.8197, 843.507080, 6.0, 3.0,Walking,High, 92.3354,-0.5073,-64.9016,-137.6771,-495.1814, 0.0000, 0.0000, 0.0000
06-Feb-2019 10:36:26.420,-0.1865,-1.1093,-0.2324,-0.2008,-0.1089,-0.0513,-0.1336, 1.2502,-0.2775, 0.1166, 1.4231,-2.1243,50.104383,-122.940356, 0.2748, 178.8722, 843.507080, 6.0, 3.0,Walking,High, 92.3354,-0.5073,-66.1774,-137.4609,-494.7983, 0.0000, 0.0000, 0.0000
06-Feb-2019 10:36:26.519,-0.1790,-1.1351,-0.2223,-0.2567,-0.1145,-0.0279,-0.1279, 0.6849,-0.4405, 0.3482, 1.4353,-2.2743,50.104383,-122.940356, 0.2748, 173.7157, 843.507080, 6.0, 3.0,Walking,High, 92.3354,-0.5073,-66.9266,-137.4658,-494.4192, 0.0000, 0.0000, 0.0000
06-Feb-2019 10:36:26.619, 0.1773,-0.7703,-0.2102, 0.0793, 0.1607,-0.1018, 0.0275, 0.1972,-0.2147, 0.6295, 1.4090,-2.5092,50.104383,-122.940356, 0.2748, 170.5063, 843.507080, 6.0, 3.0,Walking,High, 92.3354,-0.5073,-65.8739,-137.9838,-494.8776, 0.0000, 0.0000, 0.0000
06-Feb-2019 10:36:26.718, 0.2803,-0.9836,-0.1451, 0.1538, 0.0652,-0.0182,-0.2207,-0.4987,-0.5048, 0.7312, 1.3849,-2.6204,50.104383,-122.940356, 0.2748, 169.4855, 843.507080, 6.0, 3.0,Walking,High, 92.3354,-0.5073,-64.1459,-138.3454,-494.6639, 0.0000, 0.0000, 0.0000
06-Feb-2019 10:36:26.817, 0.1382,-0.8825,-0.0541, 0.0091, 0.0516, 0.0632, 0.1211,-0.1238,-0.1956, 0.8538, 1.3676,-2.7720,50.104383,-122.940356, 0.2748, 170.6606, 843.507080, 6.0, 3.0,Walking,High, 92.3354,-0.5073,-61.8223,-138.0271,-494.2251, 0.0000, 0.0000, 0.0000
06-Feb-2019 10:36:26.916,-0.0118,-0.8150,-0.0399,-0.1406, 0.1741, 0.0902,-0.2507, 0.5143, 0.2671, 0.8545, 1.3750,-2.7571,50.104383,-122.940356, 0.2748, 171.7098, 843.507080, 6.0, 3.0,Walking,High, 92.3354,-0.5073,-61.8977,-137.8771,-493.9240, 0.0000, 0.0000, 0.0000
06-Feb-2019 10:36:27.016,-0.0227,-0.9365, 0.0889,-0.1566, 0.0570, 0.2003,-0.3652, 0.6856, 0.3595, 0.6490, 1.3666,-2.4865,50.104383,-122.940356, 0.2748, 168.8530, 843.507080, 6.0, 3.0,Walking,High, 92.3354,-0.5073,-63.7730,-138.1937,-495.1902, 0.0000, 0.0000, 0.0000
06-Feb-2019 10:36:27.161, 0.0017,-1.0774,-0.1056,-0.1076,-0.2001, 0.0834,-0.1746, 0.1263, 0.4542, 0.3670, 1.3826,-2.1400,50.104383,-122.940356, 0.2748, 165.7561, 843.507080, 6.0, 3.0,Walking,High, 92.3354,-0.5073,-67.7523,-138.0015,-496.6674, 0.0000, 0.0000, 0.0000
06-Feb-2019 10:36:27.235, 0.0428,-1.3577,-0.3301, 0.0266,-0.3531,-0.1116,-0.1541,-0.4507, 0.3297, 0.1256, 1.3864,-1.9051,50.104383,-122.940356, 0.2748, 163.5381, 843.507080, 6.0, 3.0,Walking,High, 92.3354,-0.5073,-69.3309,-137.4883,-496.6561, 0.0000, 0.0000, 0.0000
06-Feb-2019 10:36:27.314, 0.0413,-0.7302,-0.4467, 0.0352, 0.2533,-0.2803,-0.0321,-1.0086,-0.0851, 0.1151, 1.3887,-1.9469,50.104386,-122.940362, 0.2164, 166.1817, 843.408936, 6.0, 3.0,Walking,High, 92.3354,-0.5073,-68.0542,-137.6280,-496.2888, 0.0000, 0.0000, 0.0000
06-Feb-2019 10:36:27.413, 0.0714,-1.0104,-0.1497, 0.0603,-0.0818, 0.0128, 0.4596,-0.8331,-0.3220, 0.1834, 1.4000,-2.0925,50.104386,-122.940362, 0.2164, 170.1254, 843.408936, 6.0, 3.0,Walking,High, 92.3352,-0.4915,-66.1800,-137.3881,-495.8480, 0.0000, 0.0000, 0.0000
06-Feb-2019 10:36:27.512, 0.0019,-0.8795,-0.2582,-0.0455, 0.1344,-0.1357, 0.2443,-1.4165,-0.3209, 0.2874, 1.4302,-2.3412,50.104386,-122.940362, 0.2164, 178.1691, 843.408936, 6.0, 3.0,Walking,High, 92.3352,-0.4915,-61.3801,-136.6721,-493.3958, 0.0000, 0.0000, 0.0000
06-Feb-2019 10:36:27.612,-0.0122,-0.8951,-0.1431,-0.0595, 0.0863,-0.0371, 0.1582,-0.5041,-0.2877, 0.4388, 1.4393,-2.5773,50.104386,-122.940362, 0.2164, 184.5330, 843.408936, 6.0, 3.0,Walking,High, 92.3352,-0.4915,-59.0567,-136.2785,-492.8066, 0.0000, 0.0000, 0.0000
06-Feb-2019 10:36:27.711,-0.0428,-1.0920,-0.1904,-0.1217,-0.0859,-0.0740, 0.2547, 0.4798,-0.0810, 0.6553, 1.4542,-2.8051,50.104386,-122.940362, 0.2164, 185.9839, 843.408936, 6.0, 3.0,Walking,High, 92.3352,-0.4915,-57.3335,-135.7387,-491.8384, 0.0000, 0.0000, 0.0000
06-Feb-2019 10:36:27.812, 0.0813,-1.1074,-0.0835,-0.0305,-0.1074,-0.0394, 0.0209, 0.8355,-0.1891, 0.8153, 1.4454,-2.9033,50.104386,-122.940362, 0.2164, 184.5817, 843.408936, 6.0, 3.0,Walking,High, 92.3352,-0.4915,-57.4115,-135.2891,-491.7607, 0.0000, 0.0000, 0.0000
06-Feb-2019 10:36:27.909, 0.2028,-0.7988,-0.1823, 0.0751, 0.1702,-0.1386,-0.3881, 1.0085,-0.3389, 1.0361, 1.4420,-3.0011,50.104386,-122.940362, 0.2164, 177.1432, 843.408936, 6.0, 3.0,Walking,High, 92.3352,-0.4915,-59.6606,-135.3052,-491.3734, 0.0000, 0.0000, 0.0000
06-Feb-2019 10:36:28.009, 0.2612,-0.9484,-0.1646, 0.1248, 0.1088,-0.0974,-0.4409, 0.4675,-0.1292, 1.0589, 1.4075,-2.9252,50.104386,-122.940362, 0.2164, 170.9915, 843.408936, 6.0, 3.0,Walking,High, 92.3352,-0.4915,-60.1112,-135.5358,-492.4971, 0.0000, 0.0000, 0.0000
06-Feb-2019 10:36:28.147, 0.2065,-1.0014,-0.1308, 0.0545, 0.0210, 0.0547,-0.2687, 0.4715, 0.0943, 0.9604, 1.3938,-2.7519,50.104386,-122.940362, 0.2164, 169.2954, 843.408936, 6.0, 3.0,Walking,High, 92.3352,-0.4915,-61.7603,-136.2271,-494.4414, 0.0000, 0.0000, 0.0000
06-Feb-2019 10:36:28.236, 0.1264,-0.8625,-0.0193,-0.0176, 0.0861, 0.1082,-0.1893, 0.4040, 0.0701, 0.8964, 1.3921,-2.6391,50.104387,-122.940368, 0.0431, 166.0815, 843.315125, 8.0, 3.0,Walking,High, 92.3352,-0.4915,-63.1859,-136.3896,-495.3344, 0.0000, 0.0000, 0.0000
06-Feb-2019 10:36:28.307, 0.1323,-0.9903,-0.0173,-0.0134, 0.0134, 0.1153,-0.0139, 0.0192, 0.1800, 0.8392, 1.3922,-2.5695,50.104387,-122.940368, 0.0431, 163.1272, 843.315125, 8.0, 3.0,Walking,High, 92.3352,-0.4915,-63.6357,-136.6193,-496.0081, 0.0000, 0.0000, 0.0000
06-Feb-2019 10:36:28.406, 0.1097,-1.0970,-0.0803, 0.0363,-0.0620, 0.0002, 0.0081,-0.0883, 0.4004, 0.7306, 1.4238,-2.4606,50.104387,-122.940368, 0.0431, 163.1272, 843.315125, 8.0, 3.0,Walking,High, 92.3352,-0.4915,-64.6126,-136.2510,-495.7009, 0.0000, 0.0000, 0.0000
06-Feb-2019 10:36:28.505, 0.0182,-0.9620,-0.1386,-0.0424, 0.0271,-0.0178,-0.0421,-0.2377, 0.4084, 0.4881, 1.4474,-2.2256,50.104387,-122.940368, 0.0431, 163.1272, 843.315125, 8.0, 3.0,Walking,High, 92.3352,-0.4915,-66.7160,-135.8927,-496.1375, 0.0000, 0.0000, 0.0000
06-Feb-2019 10:36:28.604, 0.0177,-1.0629,-0.1867,-0.0153,-0.0269,-0.0940,-0.1095,-0.5052, 0.2105, 0.1523, 1.4514,-1.9264,50.104387,-122.940368, 0.0431, 164.1883, 843.315125, 8.0, 3.0,Walking,High, 92.3352,-0.4915,-67.4647,-136.1236,-496.2846, 0.0000, 0.0000, 0.0000
06-Feb-2019 10:36:28.704,-0.0067,-0.8158,-0.2308,-0.0089, 0.1785,-0.0802,-0.0325,-1.1097,-0.0938, 0.0568, 1.4465,-1.9043,50.104387,-122.940368, 0.0431, 168.5401, 843.315125, 8.0, 3.0,Walking,High, 92.3352,-0.4915,-66.4161,-135.9660,-496.4396, 0.0000, 0.0000, 0.0000
06-Feb-2019 10:36:28.803,-0.1122,-1.1324,-0.2359,-0.0995,-0.1295,-0.1272,-0.2161,-0.7909, 0.0039,-0.0730, 1.4294,-1.8909,50.104387,-122.940368, 0.0431, 175.4173, 843.315125, 8.0, 3.0,Walking,High, 92.3352,-0.4915,-64.9899,-136.2561,-496.8239, 0.0000, 0.0000, 0.0000
06-Feb-2019 10:36:28.902,-0.1264,-0.8837,-0.1206,-0.1082, 0.0936, 0.0277,-0.0491,-0.7997,-0.1604,-0.0626, 1.4230,-1.9391,50.104387,-122.940368, 0.0431, 177.8578, 843.315125, 8.0, 3.0,Walking,High, 92.3352,-0.4915,-63.8640,-136.4733,-497.1311, 0.0000, 0.0000, 0.0000
06-Feb-2019 10:36:29.002,-0.1190,-0.9512,-0.1838,-0.1265, 0.0526,-0.0300,-0.0879,-0.5465,-0.1868,-0.0169, 1.4175,-2.0656,50.104387,-122.940368, 0.0431, 182.8668, 843.315125, 8.0, 3.0,Walking,High, 92.3352,-0.4915,-62.2132,-136.6110,-497.2159, 0.0000, 0.0000, 0.0000
06-Feb-2019 10:36:29.143,-0.0568,-1.0130,-0.1558,-0.0689,-0.0604, 0.0080,-0.0702,-0.0839,-0.2956, 0.1386, 1.4029,-2.2458,50.104387,-122.940368, 0.0431, 184.4594, 843.315125, 8.0, 3.0,Walking,High, 92.3352,-0.4915,-60.3356,-137.1985,-497.9792, 0.0000, 0.0000, 0.0000
06-Feb-2019 10:36:29.229,-0.0972,-0.9964,-0.1287,-0.1611,-0.0143, 0.0060, 0.2423, 0.5089,-0.1737, 0.2846, 1.4163,-2.3577,50.104385,-122.940370, 0.0235, 184.4594, 843.230957, 8.0, 3.0,Walking,High, 92.3352,-0.4915,-60.0367,-136.7441,-496.9285, 0.0000, 0.0000, 0.0000
06-Feb-2019 10:36:29.299,-0.0305,-0.9612,-0.0638,-0.1049, 0.0006, 0.0587, 0.1328, 0.3103,-0.3525, 0.4227, 1.4212,-2.4702,50.104385,-122.940370, 0.0235, 183.2995, 843.230957, 8.0, 3.0,Walking,High, 92.3350,-0.4703,-59.7369,-136.6666,-496.7798, 0.0000, 0.0000, 0.0000
06-Feb-2019 10:36:29.399, 0.0697,-0.9062,-0.1687,-0.0259, 0.0768,-0.0677, 0.0512, 0.2180,-0.3062, 0.6558, 1.4200,-2.6776,50.104385,-122.940370, 0.0235, 180.7351, 843.230957, 8.0, 3.0,Walking,High, 92.3350,-0.4703,-58.9108,-136.7348,-496.4847, 0.0000, 0.0000, 0.0000
06-Feb-2019 10:36:29.498, 0.1950,-1.0723,-0.1830, 0.0548,-0.0882,-0.0686,-0.1538, 0.2269,-0.3956, 0.8010, 1.4007,-2.7996,50.104385,-122.940370, 0.0235, 179.4582, 843.230957, 8.0, 3.0,Walking,High, 92.3350,-0.4703,-58.2351,-136.7290,-496.1134, 0.0000, 0.0000, 0.0000
06-Feb-2019 10:36:29.597, 0.2428,-1.1050, 0.0073, 0.0926,-0.0789, 0.1210,-0.1979, 0.8400, 0.1177, 0.8614, 1.3713,-2.8283,50.104385,-122.940370, 0.0235, 178.1167, 843.230957, 8.0, 3.0,Walking,High, 92.3350,-0.4703,-56.9593,-137.0206,-496.7218, 0.0000, 0.0000, 0.0000
06-Feb-2019 10:36:29.696, 0.1326,-0.8723, 0.0089,-0.0149, 0.0863, 0.1283,-0.2003, 0.9275, 0.0731, 0.8668, 1.3662,-2.7459,50.104385,-122.940370, 0.0235, 173.5154, 843.230957, 8.0, 3.0,Walking,High, 92.3350,-0.4703,-58.0860,-136.8798,-497.0899, 0.0000, 0.0000, 0.0000
06-Feb-2019 10:36:29.796, 0.0595,-0.8654, 0.0274,-0.0879, 0.1375, 0.1354,-0.3176, 0.9427, 0.0938, 0.8532, 1.3578,-2.6389,50.104385,-122.940370, 0.0235, 168.2090, 843.230957, 8.0, 3.0,Walking,High, 92.3350,-0.4703,-60.3343,-137.4238,-498.1303, 0.0000, 0.0000, 0.0000
06-Feb-2019 10:36:29.895, 0.0319,-1.0205, 0.0605,-0.1236,-0.0347, 0.2010,-0.2612, 0.3730, 0.0175, 0.8255, 1.3485,-2.5291,50.104385,-122.940370, 0.0235, 162.8826, 843.230957, 8.0, 3.0,Walking,High, 92.3350,-0.4703,-61.6074,-138.0357,-499.3264, 0.0000, 0.0000, 0.0000
06-Feb-2019 10:36:29.995, 0.0357,-1.0540,-0.0277,-0.1304,-0.0402, 0.1276,-0.4368, 0.0752,-0.0031, 0.7268, 1.3243,-2.4158,50.104385,-122.940370, 0.0235, 161.7375, 843.230957, 8.0, 3.0,Walking,High, 92.3350,-0.4703,-62.2829,-138.7210,-501.9510, 0.0000, 0.0000, 0.0000
06-Feb-2019 10:36:30.157, 0.2673,-1.2973,-0.2695,-0.1960,-0.1844, 0.2082,-0.6048,-0.2684,-0.4019, 0.6070, 1.2612,-2.3233,50.104385,-122.940370, 0.0235, 161.7375, 843.230957, 8.0, 3.0,Walking,High, 92.3350,-0.4703,-61.6044,-140.2230,-505.4873, 0.0000, 0.0000, 0.0000
06-Feb-2019 10:36:30.227, 0.0213,-0.5353,-0.5406,-0.0947, 0.4029,-0.3622,-0.3695,-1.1691,-0.4876, 0.5646, 1.2325,-2.3796,50.104385,-122.940370, 0.0235, 163.3466, 843.230957, 8.0, 3.0,Walking,High, 92.3355,-0.5205,-59.8769,-140.7361,-506.0244, 0.0000, 0.0000, 0.0000
06-Feb-2019 10:36:30.292, 0.0431,-0.9008,-0.4549,-0.1359, 0.0087,-0.1813,-1.0014,-3.0239,-0.9841, 0.4900, 1.1614,-2.4709,50.104385,-122.940374, 0.0270, 173.1301, 843.208984, 8.0, 3.0,Walking,High, 92.3355,-0.5205,-57.4020,-141.0197,-507.0894, 0.0000, 0.0000, 0.0000
06-Feb-2019 10:36:30.391, 0.2517,-0.6951,-0.3600, 0.0050, 0.1777, 0.0210,-0.4459,-0.7942,-1.0040, 0.5106, 1.0900,-2.5895,50.104385,-122.940374, 0.0270, 180.6982, 843.208984, 8.0, 3.0,Walking,High, 92.3355,-0.5205,-52.2345,-140.9126,-510.4173, 0.0000, 0.0000, 0.0000
06-Feb-2019 10:36:30.494, 0.1371,-0.7266,-0.3713,-0.1189, 0.1362, 0.1164,-0.2888,-0.1284,-0.7634, 0.5266, 1.0184,-2.7069,50.104385,-122.940374, 0.0270, 186.1015, 843.208984, 8.0, 3.0,Walking,High, 92.3355,-0.5205,-48.7923,-140.2903,-512.1581, 0.0000, 0.0000, 0.0000
06-Feb-2019 10:36:30.590, 0.1691,-0.2241,-0.2830,-0.2121, 0.5221, 0.1561,-0.8218, 3.1892,-0.6088, 0.7323, 0.9232,-2.7498,50.104385,-122.940374, 0.0270, 179.6809, 843.208984, 8.0, 3.0,Walking,High, 92.3355,-0.5205,-44.0760,-139.2060,-512.7036, 0.0000, 0.0000, 0.0000
06-Feb-2019 10:36:30.689, 0.5513,-0.4744,-0.6088,-0.1232, 0.3549,-0.1520,-1.0885, 0.9895,-1.3033, 0.9255, 0.8005,-2.7165,50.104385,-122.940374, 0.0270, 162.1432, 843.208984, 8.0, 3.0,Walking,High, 92.3355,-0.5205,-41.6778,-138.8121,-512.2648, 0.0000, 0.0000, 0.0000
06-Feb-2019 10:36:30.788, 0.7714,-0.4693,-0.4876, 0.1899, 0.0293,-0.0447,-1.4495,-0.7046,-1.5255, 0.9180, 0.6167,-2.6872,50.104385,-122.940374, 0.0270, 154.4352, 843.208984, 8.0, 3.0,Walking,High, 92.3355,-0.5205,-35.1943,-134.3487,-517.3782, 0.0000, 0.0000, 0.0000
06-Feb-2019 10:36:30.888, 0.6544,-0.4248,-0.6351, 0.0399, 0.0661,-0.0301,-0.6021,-1.3822,-0.2995, 0.8259, 0.4917,-2.6631,50.104385,-122.940374, 0.0270, 218.6711, 843.208984, 8.0, 3.0,Walking,High, 92.3355,-0.5205,-33.0501,-131.3424,-522.2500, 0.0000, 0.0000, 0.0000
06-Feb-2019 10:36:30.987, 0.5214,-0.4220,-0.4951,-0.0450,-0.0057, 0.2306, 0.0109,-3.0885,-1.5448, 0.6772, 0.4359,-2.6882,50.104385,-122.940374, 0.0270, 218.6711, 843.208984, 8.0, 3.0,Walking,High, 92.3355,-0.5205,-34.0486,-129.4099,-527.2598, 0.0000, 0.0000, 0.0000
06-Feb-2019 10:36:31.145, 0.2829,-0.2070,-1.8198, 0.0191,-0.2093,-0.5015,-0.2661, 0.9459,-1.4048, 0.7398, 0.2496,-2.8779,50.104385,-122.940374, 0.0270, 225.0163, 843.208984, 8.0, 3.0,Walking,High, 92.3355,-0.5205,-24.9570,-120.7142,-525.9913, 0.0000, 0.0000, 0.0000
06-Feb-2019 10:36:31.227, 0.9335,-0.2842,-0.5909, 0.4176, 0.1512,-0.0790, 0.7141,-0.3184,-0.1877, 0.7651, 0.2703,-2.9110,50.104383,-122.940380, 0.0280, 230.9825, 843.157349, 8.0, 3.0,Walking,High, 92.3355,-0.5205,-23.4530,-120.4722,-523.1484, 0.0000, 0.0000, 0.0000
06-Feb-2019 10:36:31.285, 0.9158,-0.3569,-1.4768, 0.5997,-0.0090,-0.6264,-0.9475,-1.6784,-0.0173, 0.5791, 0.2997,-2.8772,50.104383,-122.940380, 0.0280, 231.4812, 843.157349, 8.0, 3.0,Walking,High, 92.3355,-0.5205,-26.5215,-122.3771,-526.5911, 0.0000, 0.0000, 0.0000
06-Feb-2019 10:36:31.384, 0.5765,-0.1801,-0.9149, 0.0654, 0.0076,-0.2607,-1.0165,-0.0124,-0.7572, 0.5204, 0.1733,-2.8736,50.104383,-122.940380, 0.0280, 230.2322, 843.157349, 8.0, 3.0,Walking,High, 92.3355,-0.5205,-26.3391,-118.2645,-533.4715, 0.0000, 0.0000, 0.0000
06-Feb-2019 10:36:31.484, 0.2680,-0.3814,-0.2946,-0.2230,-0.3167, 0.6038, 0.3814, 0.8747, 0.6213, 0.5153, 0.0889,-2.8475,50.104383,-122.940380, 0.0280, 230.2322, 843.157349, 8.0, 3.0,Walking,High, 92.3355,-0.5205,-25.3938,-114.8885,-536.5349, 0.0000, 0.0000, 0.0000
06-Feb-2019 10:36:31.583, 0.3692,-0.1547,-0.7752,-0.1917, 0.2272, 0.0843, 2.6315, 0.1636, 1.0894, 0.5266, 0.2870,-2.8786,50.104383,-122.940380, 0.0280, 230.2986, 843.157349, 8.0, 3.0,Walking,High, 92.3355,-0.5205,-26.2303,-122.2327,-530.4919, 0.0000, 0.0000, 0.0000
06-Feb-2019 10:36:31.682, 0.6667,-0.2678,-0.8168, 0.1710, 0.1745,-0.1505, 0.5901, 0.1389, 0.5252, 0.6318, 0.4758,-2.8873,50.104383,-122.940380, 0.0280, 231.3665, 843.157349, 8.0, 3.0,Walking,High, 92.3355,-0.5205,-27.3794,-127.1750,-522.3353, 0.0000, 0.0000, 0.0000
06-Feb-2019 10:36:31.781, 0.4771,-0.6164,-0.7921, 0.0134,-0.1394,-0.0992, 0.2059,-0.5233,-0.0361, 0.6089, 0.5289,-2.8700,50.104383,-122.940380, 0.0280, 231.3665, 843.157349, 8.0, 3.0,Walking,High, 92.3355,-0.5205,-29.1572,-129.7340,-520.1634, 0.0000, 0.0000, 0.0000
06-Feb-2019 10:36:31.881, 0.5538,-0.7843,-0.8495, 0.0825,-0.2207,-0.1483,-0.1766,-0.3009,-0.2422, 0.5371, 0.5149,-2.8676,50.104383,-122.940380, 0.0280, 231.3665, 843.157349, 8.0, 3.0,Walking,High, 92.3355,-0.5205,-29.1630,-129.4378,-522.0369, 0.0000, 0.0000, 0.0000
06-Feb-2019 10:36:31.980, 0.4821,-0.4928,-0.7199,-0.0248,-0.0220,-0.0028,-0.0010, 0.7254, 0.0716, 0.5706, 0.4943,-2.8759,50.104383,-122.940380, 0.0280, 231.3665, 843.157349, 8.0, 3.0,Walking,High, 92.3355,-0.5205,-27.6697,-128.5269,-522.1905, 0.0000, 0.0000, 0.0000
06-Feb-2019 10:36:32.119, 0.3535,-0.3127,-0.4486,-0.1871, 0.0939, 0.2879,-1.0050, 0.5918,-0.8882, 0.6332, 0.4187,-2.8703,50.104383,-122.940380, 0.0280, 231.3665, 843.157349, 8.0, 3.0,Walking,High, 92.3355,-0.5231,-26.1006,-127.5391,-521.6692, 0.0000, 0.0000, 0.0000
06-Feb-2019 10:36:32.225, 0.4476,-0.6057,-0.6267,-0.1485,-0.1101, 0.0062,-0.1212, 0.6231,-0.8134, 0.7125, 0.3062,-2.9133,50.104383,-122.940380, 0.0280, 231.3665, 843.157349, 8.0, 3.0,Walking,High, 92.3355,-0.5231,-20.4377,-122.3222,-521.9742, 0.0000, 0.0000, 0.0000
06-Feb-2019 10:36:32.278, 0.7824,-0.1685,-1.4890, 0.0847, 0.2472,-0.5929, 0.5907,-0.1051, 1.9405, 0.6278, 0.3630,-2.8856,50.104376,-122.940396, 0.1248, 232.5059, 843.097168, 8.0, 3.0,Walking,High, 92.3355,-0.5231,-20.4384,-122.2474,-522.0489, 0.0000, 0.0000, 0.0000
06-Feb-2019 10:36:32.377, 0.3046,-0.2545,-0.2429,-0.2120,-0.0055, 0.4501,-0.1364,-0.8121,-0.1374, 0.6483, 0.3682,-2.8260,50.104376,-122.940396, 0.1248, 228.2547, 843.097168, 8.0, 3.0,Walking,High, 92.3355,-0.5231,-21.9214,-124.7340,-522.2781, 0.0000, 0.0000, 0.0000
06-Feb-2019 10:36:32.476, 0.5370,-0.3751,-0.6080,-0.0326, 0.0462, 0.0598,-0.9516,-0.2424,-0.4611, 0.6795, 0.3430,-2.8200,50.104376,-122.940396, 0.1248, 228.2547, 843.097168, 8.0, 3.0,Walking,High, 92.3355,-0.5231,-21.0937,-124.8005,-521.1580, 0.0000, 0.0000, 0.0000
06-Feb-2019 10:36:32.577, 0.2192,-0.2023,-0.5501,-0.4126,-0.0505, 0.2198,-0.9617, 0.6293,-0.8783, 0.6969, 0.2229,-2.8349,50.104376,-122.940396, 0.1248, 228.2547, 843.097168, 8.0, 3.0,Walking,High, 92.3355,-0.5231,-16.3367,-119.1433,-522.8809, 0.0000, 0.0000, 0.0000
06-Feb-2019 10:36:32.675, 0.6898, 0.0604,-1.0665,-0.0043, 0.2276,-0.2295,-0.2532, 0.4090, 0.0602, 0.6997, 0.1677,-2.8319,50.104376,-122.940396, 0.1248, 228.2547, 843.097168, 8.0, 3.0,Walking,High, 92.3355,-0.5231,-14.1820,-116.4283,-523.4792, 0.0000, 0.0000, 0.0000
06-Feb-2019 10:36:32.774, 0.9038,-0.3390,-0.9367, 0.3329,-0.3854,-0.0876, 0.2148, 0.9225, 0.4640, 0.6184, 0.1116,-2.7593,50.104376,-122.940396, 0.1248, 225.5130, 843.097168, 8.0, 3.0,Walking,High, 92.3355,-0.5231,-13.7507,-115.0089,-527.8995, 0.0000, 0.0000, 0.0000
06-Feb-2019 10:36:32.888, 0.5081,-0.1804,-0.6115,-0.1488,-0.0580, 0.1428,-0.2744,-0.0260, 0.1914, 0.7075, 0.0935,-2.7313,50.104376,-122.940396, 0.1248, 224.4117, 843.097168, 8.0, 3.0,Walking,High, 92.3355,-0.5231,-11.9429,-115.2139,-524.6854, 0.0000, 0.0000, 0.0000
06-Feb-2019 10:36:32.973, 0.5337,-0.1773,-0.6921,-0.1327,-0.0880,-0.0160,-0.1192, 0.0882, 0.0954, 0.7683, 0.0944,-2.7099,50.104376,-122.940396, 0.1248, 223.1984, 843.097168, 8.0, 3.0,Walking,High, 92.3367,-0.6262,-9.9871,-115.4200,-522.5222, 0.0000, 0.0000, 0.0000
06-Feb-2019 10:36:33.119, 0.6555,-0.2067,-0.6779,-0.0649,-0.0859, 0.0051, 0.2820, 0.7398, 0.2786, 0.8121, 0.1211,-2.7036,50.104376,-122.940396, 0.1248, 221.9848, 843.097168, 8.0, 3.0,Walking,High, 92.3367,-0.6262,-9.5266,-116.5388,-521.1804, 0.0000, 0.0000, 0.0000
06-Feb-2019 10:36:33.231, 0.5918, 0.0155,-0.5640,-0.1194, 0.3382,-0.0407, 0.5967, 0.4487, 0.8976, 0.8970, 0.2546,-2.6770,50.104375,-122.940398, 0.0147, 221.9848, 842.943237, 8.0, 3.0,Walking,High, 92.3367,-0.6262,-9.8459,-122.6785,-514.8343, 0.0000, 0.0000, 0.0000
06-Feb-2019 10:36:33.271, 0.7786,-0.0391,-0.7605,-0.0202, 0.3466,-0.1342, 0.0959,-0.6210, 0.9805, 0.8745, 0.3196,-2.6566,50.104375,-122.940398, 0.0147, 219.5946, 842.943237, 8.0, 3.0,Walking,High, 92.3367,-0.6262,-11.1007,-125.4622,-514.4663, 0.0000, 0.0000, 0.0000
06-Feb-2019 10:36:33.370, 0.5036,-0.1527,-0.4226,-0.2119, 0.1906, 0.2021, 0.0674, 0.1186, 0.1859, 0.8321, 0.3486,-2.6231,50.104375,-122.940398, 0.0147, 217.9338, 842.943237, 8.0, 3.0,Walking,High, 92.3367,-0.6262,-11.5295,-129.0695,-516.5070, 0.0000, 0.0000, 0.0000
06-Feb-2019 10:36:33.469, 0.5992,-0.1876,-0.5885,-0.0829, 0.1725, 0.0431,-0.0591,-0.1746, 0.1358, 0.8284, 0.3773,-2.6166,50.104375,-122.940398, 0.0147, 216.8672, 842.943237, 8.0, 3.0,Walking,High, 92.3367,-0.6262,-10.6909,-130.8622,-515.9955, 0.0000, 0.0000, 0.0000
06-Feb-2019 10:36:33.569, 0.5774,-0.2121,-0.5768,-0.1046, 0.1861, 0.0865,-0.1271,-0.2809,-0.1535, 0.8116, 0.3801,-2.6060,50.104375,-122.940398, 0.0147, 216.8672, 842.943237, 8.0, 3.0,Walking,High, 92.3367,-0.6262,-8.0585,-132.3453,-517.4424, 0.0000, 0.0000, 0.0000
06-Feb-2019 10:36:33.668, 0.7193,-0.2050,-0.8688, 0.0158, 0.1372,-0.1656,-1.0077,-0.5564,-0.3224, 0.7719, 0.3307,-2.5765,50.104375,-122.940398, 0.0147, 215.7652, 842.943237, 8.0, 3.0,Walking,High, 92.3367,-0.6262,-0.4215,-132.3007,-523.7842, 0.0000, 0.0000, 0.0000
06-Feb-2019 10:36:33.767, 0.8859,-0.4695,-1.2721, 0.2345,-0.2188,-0.2448,-1.5995,-1.7995,-0.7377, 0.6925, 0.2462,-2.5352,50.104375,-122.940398, 0.0147, 212.8180, 842.943237, 8.0, 3.0,Walking,High, 92.3367,-0.6262, 6.1435,-130.1717,-533.8597, 0.0000, 0.0000, 0.0000
06-Feb-2019 10:36:33.866, 0.1585,-0.4261,-0.8370,-0.1491,-0.2587, 0.7485, 0.6449,-5.0932,-0.3393, 0.2673, 0.0674,-2.5242,50.104375,-122.940398, 0.0147, 210.9656, 842.943237, 8.0, 3.0,Walking,High, 92.3376,-0.7028,-3.0660,-111.3434,-572.7149, 0.0000, 0.0000, 0.0000
06-Feb-2019 10:36:33.965, 0.1863, 0.0169,-1.0159,-0.0283, 0.0050,-0.0330,-0.1440,-0.0965,-0.0254, 0.2358,-0.0040,-2.5325,50.104375,-122.940398, 0.0147, 210.9656, 842.943237, 8.0, 3.0,Walking,High, 92.3376,-0.7028,-6.8113,-102.9078,-578.3521, 0.0000, 0.0000, 0.0000
06-Feb-2019 10:36:34.138, 0.1735, 0.0361,-1.0090,-0.0643, 0.0300,-0.0312,-0.0563,-0.1706,-0.0027, 0.2202,-0.0145,-2.5298,50.104375,-122.940398, 0.0147, 210.9656, 842.943237, 8.0, 3.0,Walking,High, 92.3376,-0.7028,-10.5849,-99.2591,-577.3381, 0.0000, 0.0000, 0.0000
06-Feb-2019 10:36:34.365, 0.1649, 0.0290,-0.9843, 0.0487,-0.0364,-0.1380, 0.0472, 0.0918, 0.0079, 0.2230,-0.0073,-2.5269,50.104375,-122.940397, 0.0095, 210.9656, 842.915466, 8.0, 3.0,Walking,High, 92.3376,-0.7028,-11.1831,-99.4884,-577.2609, 0.0000, 0.0000, 0.0000
06-Feb-2019 10:36:34.429, 0.2682, 0.0510,-0.9253,-0.0067, 0.0130,-0.0814, 0.0407,-0.0402,-0.0041, 0.2138,-0.0019,-2.5247,50.104375,-122.940397, 0.0095, 210.9656, 842.915466, 8.0, 3.0,Walking,High, 92.3376,-0.7028,-11.2501,-100.7648,-577.7170, 0.0000, 0.0000, 0.0000
06-Feb-2019 10:36:34.435, 0.2682, 0.0510,-0.9253,-0.0058, 0.0134,-0.0812, 0.0407,-0.0402,-0.0041, 0.2129,-0.0014,-2.5242,50.104375,-122.940397, 0.0095, 210.9656, 842.915466, 8.0, 3.0,Walking,High, 92.3376,-0.7028,-11.2501,-100.7648,-577.7170, 0.0000, 0.0000, 0.0000
06-Feb-2019 10:36:34.462, 0.3012,-0.0071,-0.9775, 0.0419, 0.0000,-0.0258, 0.1757,-0.1328,-0.0462, 0.2077, 0.0019,-2.5227,50.104375,-122.940397, 0.0095, 210.9656, 842.915466, 8.0, 3.0,Walking,High, 92.3376,-0.7028,-11.1685,-101.9660,-578.6235, 0.0000, 0.0000, 0.0000
06-Feb-2019 10:36:34.561,-0.0746,-0.0017,-0.8869,-0.2865, 0.0197, 0.1108, 0.0535, 0.2964,-0.2357, 0.2261, 0.0142,-2.5467,50.104375,-122.940397, 0.0095, 212.0253, 842.915466, 8.0, 3.0,Walking,High, 92.3376,-0.7028,-9.1290,-103.9753,-578.4197, 0.0000, 0.0000, 0.0000
06-Feb-2019 10:36:34.666, 0.1467, 0.0007,-1.0595,-0.0964, 0.0106,-0.0896, 0.0376, 0.1421,-0.4512, 0.2456, 0.0099,-2.5783,50.104375,-122.940397, 0.0095, 214.3666, 842.915466, 8.0, 3.0,Walking,High, 92.3376,-0.7028,-5.7552,-103.5734,-577.6112, 0.0000, 0.0000, 0.0000
06-Feb-2019 10:36:34.760, 0.2918, 0.0134,-0.9704, 0.0408, 0.0324, 0.0004, 0.1603, 0.0745,-0.2238, 0.2560, 0.0123,-2.6271,50.104375,-122.940397, 0.0095, 216.0137, 842.915466, 8.0, 3.0,Walking,High, 92.3408,-0.9962,-4.6400,-102.2153,-577.7606, 0.0000, 0.0000, 0.0000
06-Feb-2019 10:36:34.859, 0.2186,-0.0033,-0.9119,-0.0335, 0.0182, 0.0658,-0.1529,-0.1355, 0.0991, 0.2579, 0.0141,-2.6295,50.104375,-122.940397, 0.0095, 217.2844, 842.915466, 8.0, 3.0,Walking,High, 92.3408,-0.9962,-3.8898,-102.2094,-577.6146, 0.0000, 0.0000, 0.0000
06-Feb-2019 10:36:34.958, 0.1978,-0.0035,-0.9520,-0.0393, 0.0026, 0.0188,-0.1178,-0.1869, 0.1812, 0.2417, 0.0045,-2.6117,50.104375,-122.940397, 0.0095, 217.2844, 842.915466, 8.0, 3.0,Walking,High, 92.3408,-0.9962,-5.3992,-101.0974,-578.4258, 0.0000, 0.0000, 0.0000
06-Feb-2019 10:36:35.151, 0.1787, 0.0072,-0.9788,-0.0432, 0.0069,-0.0037,-0.0860,-0.1375, 0.1431, 0.2238,-0.0004,-2.5929,50.104375,-122.940397, 0.0095, 216.0960, 842.915466, 8.0, 3.0,Walking,High, 92.3408,-0.9962,-8.3329,-99.9954,-578.9292, 0.0000, 0.0000, 0.0000
06-Feb-2019 10:36:35.233, 0.1439,-0.0017,-0.9942,-0.0409, 0.0473, 0.0134,-0.0614,-0.0375,-0.0206, 0.2160,-0.0073,-2.5895,50.104375,-122.940397, 0.0126, 216.0960, 842.917969, 8.0, 3.0,Walking,High, 92.3408,-0.9962,-10.2952,-98.2099,-578.8345, 0.0000, 0.0000, 0.0000
06-Feb-2019 10:36:35.256, 0.1750, 0.0165,-0.9712,-0.0297, 0.0098,-0.0006,-0.0373, 0.0212,-0.0193, 0.2166,-0.0082,-2.5896,50.104375,-122.940397, 0.0126, 216.0960, 842.917969, 8.0, 3.0,Walking,High, 92.3408,-0.9962,-10.5223,-97.9116,-578.8317, 0.0000, 0.0000, 0.0000
06-Feb-2019 10:36:35.356, 0.1758, 0.0120,-0.9601,-0.0372, 0.0096, 0.0089,-0.0072,-0.0180,-0.0182, 0.2169,-0.0097,-2.5902,50.104375,-122.940397, 0.0126, 216.0960, 842.917969, 8.0, 3.0,Walking,High, 92.3408,-0.9962,-10.2995,-97.5345,-578.6061, 0.0000, 0.0000, 0.0000
06-Feb-2019 10:36:35.455, 0.1535, 0.0219,-0.9504,-0.0362, 0.0096, 0.0375,-0.1083,-0.1846,-0.0190, 0.2089,-0.0137,-2.5901,50.104375,-122.940397, 0.0126, 216.0960, 842.917969, 8.0, 3.0,Walking,High, 92.3408,-0.9962,-11.2011,-97.3164,-578.6750, 0.0000, 0.0000, 0.0000
06-Feb-2019 10:36:35.554, 0.1415, 0.0288,-0.9480,-0.0434, 0.0083, 0.0379,-0.0751,-0.2111,-0.0114, 0.1891,-0.0224,-2.5887,50.104375,-122.940397, 0.0126, 215.0927, 842.917969, 8.0, 3.0,Walking,High, 92.3408,-0.9962,-13.5401,-95.3843,-578.8775, 0.0000, 0.0000, 0.0000
06-Feb-2019 10:36:35.653, 0.1587, 0.0309,-1.0138,-0.0260,-0.0096,-0.0056,-0.0323,-0.0938,-0.0067, 0.1814,-0.0232,-2.5884,50.104375,-122.940397, 0.0126, 215.0927, 842.917969, 8.0, 3.0,Walking,High, 92.3408,-0.9962,-16.1808,-93.3809,-579.7529, 0.0000, 0.0000, 0.0000
06-Feb-2019 10:36:35.753, 0.1357, 0.0400,-0.9401,-0.0386, 0.0073, 0.0090,-0.1079,-0.0825,-0.0177, 0.1781,-0.0270,-2.5881,50.104375,-122.940397, 0.0126, 215.0927, 842.917969, 8.0, 3.0,Walking,High, 92.3638,-3.0545,-16.4084,-92.9320,-579.4494, 0.0000, 0.0000, 0.0000
06-Feb-2019 10:36:35.852, 0.1317, 0.0425,-0.9590,-0.0438, 0.0079, 0.0047,-0.0900,-0.0579,-0.0144, 0.1678,-0.0361,-2.5867,50.104375,-122.940397, 0.0126, 215.0927, 842.917969, 8.0, 3.0,Walking,High, 92.3638,-3.0545,-19.5834,-89.5824,-580.2402, 0.0000, 0.0000, 0.0000
06-Feb-2019 10:36:35.953, 0.1268, 0.0487,-0.9726,-0.0312, 0.0003, 0.0073,-0.0600,-0.1036,-0.0005, 0.1585,-0.0420,-2.5853,50.104375,-122.940397, 0.0126, 215.0927, 842.917969, 8.0, 3.0,Walking,High, 92.3638,-3.0545,-21.5454,-87.9476,-580.5212, 0.0000, 0.0000, 0.0000
06-Feb-2019 10:36:36.093, 0.1149, 0.0512,-0.9842,-0.0263, 0.0070, 0.0292,-0.0548,-0.0780,-0.0015, 0.1478,-0.0449,-2.5837,50.104375,-122.940397, 0.0126, 215.0927, 842.917969, 8.0, 3.0,Walking,High, 92.3638,-3.0545,-23.6549,-86.6136,-580.5780, 0.0000, 0.0000, 0.0000
06-Feb-2019 10:36:36.260, 0.1208, 0.0614,-0.9637,-0.0256, 0.0100, 0.0241,-0.0273,-0.0459,-0.0109, 0.1472,-0.0514,-2.5816,50.104374,-122.940397, 0.0171, 215.0927, 842.918823, 6.0, 3.0,Walking,High, 92.3638,-3.0545,-24.4892,-85.2698,-580.5667, 0.0000, 0.0000, 0.0000
06-Feb-2019 10:36:36.266, 0.1208, 0.0614,-0.9637,-0.0305, 0.0056, 0.0630,-0.0273,-0.0459,-0.0109, 0.1472,-0.0515,-2.5816,50.104374,-122.940397, 0.0171, 215.0927, 842.918823, 6.0, 3.0,Walking,High, 92.3638,-3.0545,-24.1153,-85.1170,-580.5680, 0.0000, 0.0000, 0.0000
06-Feb-2019 10:36:36.348, 0.1211, 0.0631,-0.9682,-0.0266, 0.0110, 0.0110, 0.0193,-0.0158,-0.0063, 0.1475,-0.0501,-2.5816,50.104374,-122.940397, 0.0171, 215.0927, 842.918823, 6.0, 3.0,Walking,High, 92.3638,-3.0545,-23.8123,-85.5649,-580.6469, 0.0000, 0.0000, 0.0000
06-Feb-2019 10:36:36.448, 0.1232, 0.0534,-0.9561,-0.0250, 0.0059, 0.0215, 0.0299,-0.0179,-0.0009, 0.1474,-0.0464,-2.5815,50.104374,-122.940397, 0.0171, 215.0927, 842.918823, 6.0, 3.0,Walking,High, 92.3638,-3.0545,-22.7527,-87.0577,-581.0352, 0.0000, 0.0000, 0.0000
06-Feb-2019 10:36:36.547, 0.1203, 0.0450,-0.9738,-0.0247, 0.0056, 0.0121,-0.0133,-0.0714,-0.0045, 0.1426,-0.0449,-2.5811,50.104374,-122.940397, 0.0171, 215.0927, 842.918823, 6.0, 3.0,Walking,High, 92.3638,-3.0545,-22.8247,-87.5084,-581.1121, 0.0000, 0.0000, 0.0000
06-Feb-2019 10:36:36.647, 0.1600, 0.1380,-0.9532, 0.0224, 0.0759, 0.0489,-0.0374,-0.0454, 0.0871, 0.1373,-0.0458,-2.5788,50.104374,-122.940397, 0.0171, 215.0927, 842.918823, 6.0, 3.0,Walking,High, 92.4581,-11.5152,-23.6534,-86.9898,-581.1799, 0.0000, 0.0000, 0.0000
06-Feb-2019 10:36:36.745, 0.0697, 0.0805,-1.0265, 0.0487, 0.0280, 0.0131, 0.0427,-0.0146,-0.0126, 0.1394,-0.0458,-2.5718,50.104374,-122.940397, 0.0171, 214.0899, 842.918823, 6.0, 3.0,Walking,High, 92.4581,-11.5152,-22.5985,-87.6566,-581.0391, 0.0000, 0.0000, 0.0000
06-Feb-2019 10:36:36.845, 0.1155, 0.0641,-0.9789,-0.0444, 0.0206, 0.0388, 0.0222, 0.0504,-0.0382, 0.1424,-0.0414,-2.5739,50.104374,-122.940397, 0.0171, 214.0899, 842.918823, 6.0, 3.0,Walking,High, 92.4581,-11.5152,-20.2577,-89.8133,-580.6877, 0.0000, 0.0000, 0.0000
06-Feb-2019 10:36:36.945, 0.0802, 0.0069,-0.9547,-0.0060,-0.0156, 0.0119, 0.0406, 0.1536,-0.0240, 0.1514,-0.0371,-2.5790,50.104374,-122.940397, 0.0171, 214.0899, 842.918823, 6.0, 3.0,Walking,High, 92.4581,-11.5152,-18.1501,-90.7716,-580.2541, 0.0000, 0.0000, 0.0000
06-Feb-2019 10:36:37.139, 0.1369,-0.0044,-0.9637, 0.0014, 0.0010, 0.0229, 0.0136, 0.0674,-0.0467, 0.1611,-0.0340,-2.5806,50.104374,-122.940397, 0.0171, 214.0899, 842.918823, 6.0, 3.0,Walking,High, 92.4581,-11.5152,-15.0602,-92.7726,-579.8311, 0.0000, 0.0000, 0.0000
06-Feb-2019 10:36:37.210, 0.1680, 0.0384,-0.9706,-0.0153, 0.0037, 0.0248,-0.0290,-0.1140,-0.0089, 0.1447,-0.0359,-2.5815,50.104371,-122.940404,-1.0000, 214.0899, 842.926208, 6.0, 3.2,Walking,High, 92.4581,-11.5152,-16.4881,-92.4086,-579.9714, 0.0000, 0.0000, 0.0000
06-Feb-2019 10:36:37.242, 0.1266, 0.0453,-0.9813,-0.0163, 0.0075, 0.0355,-0.0452,-0.2397, 0.0057, 0.1373,-0.0371,-2.5809,50.104371,-122.940404,-1.0000, 214.0899, 842.926208, 6.0, 3.2,Walking,High, 92.4581,-11.5152,-18.0702,-91.4459,-580.1829, 0.0000, 0.0000, 0.0000
06-Feb-2019 10:36:37.341, 0.1105, 0.0386,-0.9897,-0.0012, 0.0007, 0.0300,-0.0514,-0.1078, 0.0017, 0.1246,-0.0407,-2.5788,50.104371,-122.940404,-1.0000, 214.0899, 842.926208, 6.0, 3.2,Walking,High, 92.4581,-11.5152,-20.5539,-90.2649,-580.3883, 0.0000, 0.0000, 0.0000
06-Feb-2019 10:36:37.440, 0.1081, 0.0731,-1.0014,-0.0007, 0.0072, 0.0062,-0.0980, 0.0036, 0.0102, 0.1206,-0.0444,-2.5775,50.104371,-122.940404,-1.0000, 214.0899, 842.926208, 6.0, 3.2,Walking,High, 92.4581,-11.5152,-22.9688,-88.1078,-580.2892, 0.0000, 0.0000, 0.0000
06-Feb-2019 10:36:37.540, 0.0925, 0.0028,-1.0288,-0.0317,-0.0322,-0.0423,-0.0476,-0.0332,-0.0099, 0.1224,-0.0506,-2.5720,50.104371,-122.940404,-1.0000, 214.0899, 842.926208, 6.0, 3.2,Walking,High, 92.4966,-14.9688,-23.1999,-87.1338,-579.9081, 0.0000, 0.0000, 0.0000
06-Feb-2019 10:36:37.639, 0.1149, 0.0541,-0.9751,-0.0068,-0.0091, 0.0246,-0.0061,-0.0361,-0.0129, 0.1197,-0.0523,-2.5722,50.104371,-122.940404,-1.0000, 214.0899, 842.926208, 6.0, 3.2,Walking,High, 92.4966,-14.9688,-22.9003,-87.1320,-580.1347, 0.0000, 0.0000, 0.0000
06-Feb-2019 10:36:37.739, 0.1154, 0.0768,-0.9896,-0.0058, 0.0188, 0.0339, 0.0096, 0.0033,-0.0053, 0.1193,-0.0510,-2.5726,50.104371,-122.940404,-1.0000, 214.0899, 842.926208, 6.0, 3.2,Walking,High, 92.4966,-14.9688,-23.3526,-86.8356,-580.2057, 0.0000, 0.0000, 0.0000
06-Feb-2019 10:36:37.838, 0.1055, 0.0461,-1.0143,-0.0031, 0.0030,-0.0099, 0.0652,-0.0325,-0.0168, 0.1182,-0.0473,-2.5730,50.104371,-122.940404,-1.0000, 214.0899, 842.926208, 6.0, 3.2,Walking,High, 92.4966,-14.9688,-23.8063,-86.4651,-580.8014, 0.0000, 0.0000, 0.0000
06-Feb-2019 10:36:37.937, 0.1110, 0.0507,-0.9469,-0.0002,-0.0011, 0.0415, 0.0120,-0.0414,-0.0085, 0.1154,-0.0438,-2.5732,50.104371,-122.940404,-1.0000, 214.0899, 842.926208, 6.0, 3.2,Walking,High, 92.4966,-14.9688,-22.1416,-88.7036,-581.2717, 0.0000, 0.0000, 0.0000
06-Feb-2019 10:36:38.106, 0.1147, 0.0357,-0.9721,-0.0030,-0.0040, 0.0202, 0.0529, 0.0504,-0.0071, 0.1181,-0.0397,-2.5733,50.104371,-122.940404,-1.0000, 214.0899, 842.926208, 6.0, 3.2,Walking,High, 92.4966,-14.9688,-20.9346,-89.6693,-581.1332, 0.0000, 0.0000, 0.0000
06-Feb-2019 10:36:38.240, 0.1304, 0.0271,-0.9928,-0.0131,-0.0005,-0.0098, 0.0938, 0.1368, 0.0007, 0.1374,-0.0252,-2.5738,50.104365,-122.940415, 0.4407, 214.0899, 843.794189, 6.0, 6.5,Walking,High, 92.4966,-14.9688,-14.5941,-95.1698,-580.1456, 0.0000, 0.0000, 0.0000
06-Feb-2019 10:36:38.256, 0.1304, 0.0271,-0.9928, 0.0039, 0.0073, 0.0002, 0.0938, 0.1368, 0.0007, 0.1401,-0.0231,-2.5738,50.104365,-122.940415, 0.4407, 214.0899, 843.794189, 6.0, 6.5,Walking,High, 92.4966,-14.9688,-14.5941,-95.1698,-580.1456, 0.0000, 0.0000, 0.0000
06-Feb-2019 10:36:38.334, 0.1440, 0.0259,-0.9370,-0.0092, 0.0077, 0.0452, 0.0457, 0.0281,-0.0285, 0.1477,-0.0158,-2.5747,50.104365,-122.940415, 0.4407, 214.0899, 843.794189, 6.0, 6.5,Walking,High, 92.4966,-14.9688,-12.4052,-97.1785,-580.2427, 0.0000, 0.0000, 0.0000
06-Feb-2019 10:36:38.434, 0.1406, 0.0200,-0.9460, 0.0022, 0.0044, 0.0442,-0.0559,-0.0555,-0.0249, 0.1472,-0.0153,-2.5776,50.104365,-122.940415, 0.4407, 214.0899, 843.794189, 6.0, 6.5,Walking,High, 92.4966,-14.9688,-11.7232,-98.1481,-580.1013, 0.0000, 0.0000, 0.0000
06-Feb-2019 10:36:38.533, 0.1351, 0.0226,-0.9510,-0.0023, 0.0050, 0.0079,-0.0654,-0.0791,-0.0069, 0.1411,-0.0205,-2.5771,50.104365,-122.940415, 0.4407, 214.0899, 843.794189, 6.0, 6.5,Walking,High, 92.4966,-14.9688,-12.0283,-97.4759,-580.3212, 0.0000, 0.0000, 0.0000
06-Feb-2019 10:36:38.632, 0.1315, 0.0271,-0.9874, 0.0068, 0.0003, 0.0059,-0.0533,-0.1343,-0.0101, 0.1305,-0.0265,-2.5759,50.104365,-122.940415, 0.4407, 214.0899, 843.794189, 6.0, 6.5,Walking,High, 92.4966,-14.9688,-13.3874,-96.1357,-580.1570, 0.0000, 0.0000, 0.0000
06-Feb-2019 10:36:38.731, 0.1190, 0.0311,-1.0188, 0.0007,-0.0024, 0.0646,-0.0158,-0.0096,-0.0097, 0.1259,-0.0287,-2.5754,50.104365,-122.940415, 0.4407, 214.0899, 843.794189, 6.0, 6.5,Walking,High, 92.4966,-14.9688,-15.3484,-94.5755,-580.2135, 0.0000, 0.0000, 0.0000
06-Feb-2019 10:36:38.831, 0.1175, 0.0335,-0.9464, 0.0011, 0.0012, 0.0377,-0.0243,-0.0171,-0.0097, 0.1241,-0.0308,-2.5751,50.104365,-122.940415, 0.4407, 214.0899, 843.794189, 6.0, 6.5,Walking,High, 92.4966,-14.9688,-16.4020,-94.0584,-580.2051, 0.0000, 0.0000, 0.0000
06-Feb-2019 10:36:38.930, 0.1304, 0.0240,-0.9190, 0.0050,-0.0051, 0.0073, 0.0487, 0.0365,-0.0029, 0.1263,-0.0290,-2.5748,50.104365,-122.940415, 0.4407, 214.0899, 843.794189, 6.0, 6.5,Walking,High, 92.4966,-14.9688,-16.9336,-93.0872,-580.1223, 0.0000, 0.0000, 0.0000
06-Feb-2019 10:36:39.065, 0.1441, 0.0263,-1.0323, 0.0028, 0.0092,-0.0425, 0.2622, 0.3973, 0.0265, 0.1418,-0.0171,-2.5748,50.104365,-122.940415, 0.4407, 214.0899, 843.794189, 6.0, 6.5,Walking,High, 92.4966,-14.9688,-16.0242,-94.4305,-580.1340, 0.0000, 0.0000, 0.0000
06-Feb-2019 10:36:39.150, 0.2275,-0.1335,-0.9266, 0.0049,-0.0187, 0.1001, 2.4866, 1.3637, 0.7968, 0.2714, 0.1751,-2.5446,50.104365,-122.940415, 0.4407, 213.0579, 843.794189, 6.0, 6.5,Walking,High, 92.4966,-14.9688,-5.7542,-112.8624,-572.1077, 0.0000, 0.0000, 0.0000
06-Feb-2019 10:36:39.239, 0.3848,-0.2015,-0.8710, 0.0312, 0.1095, 0.0112, 1.5077, 0.3406,-0.1570, 0.3813, 0.3162,-2.6054,50.104360,-122.940418, 0.4407, 213.0579, 842.883179, 8.0, 3.2,Walking,High, 92.4966,-14.9688,-0.5036,-128.2300,-550.6134, 0.0000, 0.0000, 0.0000
06-Feb-2019 10:36:39.327, 0.3465,-0.3836,-1.3476,-0.0434,-0.0207,-0.2184, 1.4213, 0.1202, 0.1479, 0.3613, 0.4157,-2.6407,50.104360,-122.940418, 0.4407, 216.9453, 842.883179, 8.0, 3.2,Walking,High, 92.4966,-14.9688,-3.6918,-132.2955,-546.4163, 0.0000, 0.0000, 0.0000
06-Feb-2019 10:36:39.426, 0.7517,-0.7440,-1.0535, 0.3961,-0.1972,-0.2157, 1.5804,-0.5770, 0.1443, 0.4269, 0.5369,-2.6723,50.104360,-122.940418, 0.4407, 218.0769, 842.883179, 8.0, 3.2,Walking,High, 92.3874,-5.1736,-6.4169,-136.2689,-535.3961, 0.0000, 0.0000, 0.0000
06-Feb-2019 10:36:39.526, 0.1471,-0.2901,-0.7165,-0.1294, 0.2052, 0.0679, 0.5320, 0.0715, 0.3341, 0.3507, 0.6634,-2.6602,50.104360,-122.940418, 0.4407, 219.8965, 842.883179, 8.0, 3.2,Walking,High, 92.3874,-5.1736,-17.3997,-139.3305,-525.0010, 0.0000, 0.0000, 0.0000
06-Feb-2019 10:36:39.625, 0.1486,-0.1375,-0.6825,-0.1093, 0.5050, 0.0521,-0.7604,-0.6264,-0.1146, 0.3420, 0.6471,-2.6774,50.104360,-122.940418, 0.4407, 219.8965, 842.883179, 8.0, 3.2,Walking,High, 92.3874,-5.1736,-19.7338,-137.3936,-522.8035, 0.0000, 0.0000, 0.0000
06-Feb-2019 10:36:39.724, 0.3457,-0.3463,-0.8158, 0.0531, 0.1371, 0.0463,-2.2170, 0.8174,-0.4123, 0.3259, 0.5128,-2.6344,50.104360,-122.940418, 0.4407, 218.2762, 842.883179, 8.0, 3.2,Walking,High, 92.3874,-5.1736,-21.1273,-132.8407,-528.6230, 0.0000, 0.0000, 0.0000
06-Feb-2019 10:36:39.824, 0.4618,-0.1634,-1.1334, 0.1452, 0.0589,-0.2415,-1.8955,-0.0377,-0.7563, 0.3735, 0.2800,-2.5997,50.104360,-122.940418, 0.4407, 215.9714, 842.883179, 8.0, 3.2,Walking,High, 92.3874,-5.1736,-19.2334,-126.0853,-533.0247, 0.0000, 0.0000, 0.0000
06-Feb-2019 10:36:39.923, 0.2102,-0.0863,-1.0010,-0.0885, 0.0227,-0.0963,-1.5002, 0.3883,-0.7738, 0.3315, 0.0729,-2.6124,50.104360,-122.940418, 0.4407, 215.9714, 842.883179, 8.0, 3.2,Walking,High, 92.3874,-5.1736,-20.2235,-115.3829,-540.6157, 0.0000, 0.0000, 0.0000
06-Feb-2019 10:36:40.140, 0.1531, 0.0677,-0.6091,-0.2464,-0.0132, 0.3040,-1.2872, 0.1121,-0.8468, 0.4125,-0.0810,-2.6507,50.104360,-122.940418, 0.4407, 217.5441, 842.883179, 8.0, 3.2,Walking,High, 92.3874,-5.1736,-18.4601,-109.9683,-539.9234, 0.0000, 0.0000, 0.0000
06-Feb-2019 10:36:40.260, 0.7325,-0.4165,-0.9055, 0.2455,-0.4025,-0.1961, 0.3183, 2.8057, 2.0339, 0.6300,-0.1106,-2.4818,50.104360,-122.940418, 0.4407, 218.7767, 842.883179, 8.0, 3.2,Walking,High, 92.3874,-5.1736,-17.7955,-107.7835,-537.5161, 0.0000, 0.0000, 0.0000
06-Feb-2019 10:36:40.275, 0.7325,-0.4165,-0.9055, 0.0467,-0.0208,-0.1844, 0.3183, 2.8057, 2.0339, 0.6780,-0.0880,-2.4513,50.104354,-122.940417, 0.0075, 216.0725, 842.791565, 8.0, 3.2,Walking,High, 92.3874,-5.1736,-16.7883,-111.2177,-533.4138, 0.0000, 0.0000, 0.0000
06-Feb-2019 10:36:40.320, 0.8458, 0.4458,-1.0115, 0.0644, 0.3984,-0.2203, 0.4681, 1.9232, 2.4187, 0.7464,-0.0196,-2.3841,50.104354,-122.940417, 0.0075, 206.0069, 842.791565, 8.0, 3.2,Walking,High, 92.3453,-1.4004,-17.6570,-115.1202,-531.4036, 0.0000, 0.0000, 0.0000
06-Feb-2019 10:36:40.424, 0.9169,-0.1266,-0.6328, 0.1023,-0.0314,-0.0606,-0.8439, 1.6610, 1.4966, 0.9584, 0.0953,-2.2261,50.104354,-122.940417, 0.0075, 195.5663, 842.791565, 8.0, 3.2,Walking,High, 92.3453,-1.4004,-19.4830,-120.4473,-525.5701, 0.0000, 0.0000, 0.0000
06-Feb-2019 10:36:40.519, 0.7909,-0.1767,-0.6255,-0.0549,-0.0020,-0.1547,-0.2314, 0.0997, 1.1709, 1.0510, 0.1796,-2.1157,50.104354,-122.940417, 0.0075, 190.2496, 842.791565, 8.0, 3.2,Walking,High, 92.3453,-1.4004,-23.3457,-125.1972,-523.5477, 0.0000, 0.0000, 0.0000
06-Feb-2019 10:36:40.618, 0.9480,-0.3281,-0.4089, 0.1265,-0.0690, 0.0505,-0.1859, 0.2658, 1.0116, 1.0357, 0.2634,-2.0394,50.104354,-122.940417, 0.0075, 185.9420, 842.791565, 8.0, 3.2,Walking,High, 92.3453,-1.4004,-27.0823,-127.4778,-524.8135, 0.0000, 0.0000, 0.0000
06-Feb-2019 10:36:40.717, 0.8932,-0.3198,-0.3153, 0.0758, 0.0485, 0.1539, 0.5743,-0.3316, 1.1070, 1.0437, 0.3774,-2.0129,50.104354,-122.940417, 0.0075, 183.7171, 842.791565, 8.0, 3.2,Walking,High, 92.3453,-1.4004,-32.0764,-131.5630,-523.6814, 0.0000, 0.0000, 0.0000
06-Feb-2019 10:36:40.817, 0.8364,-0.2536,-0.3052, 0.1024, 0.1892, 0.1522, 0.1752,-0.3296, 1.1071, 1.0173, 0.4899,-1.9820,50.104354,-122.940417, 0.0075, 182.6966, 842.791565, 8.0, 3.2,Walking,High, 92.3453,-1.4004,-36.5600,-133.7707,-523.2178, 0.0000, 0.0000, 0.0000
06-Feb-2019 10:36:40.916, 0.6100,-0.2440,-0.4575,-0.0240, 0.3349, 0.0517, 0.2750,-1.1468, 0.9805, 0.9291, 0.5991,-1.9406,50.104354,-122.940417, 0.0075, 180.3638, 842.791565, 8.0, 3.2,Walking,High, 92.3453,-1.4004,-43.5139,-136.8231,-523.3448, 0.0000, 0.0000, 0.0000
06-Feb-2019 10:36:41.015, 0.4725,-0.4196,-0.4772,-0.0583, 0.2353, 0.0562, 0.1039,-0.9515, 1.0897, 0.7460, 0.6801,-1.8680,50.104354,-122.940417, 0.0075, 177.0237, 842.791565, 8.0, 3.2,Walking,High, 92.3453,-1.4004,-48.9097,-137.9169,-525.0456, 0.0000, 0.0000, 0.0000
06-Feb-2019 10:36:41.150, 0.6070,-0.7770,-0.7918, 0.1747,-0.0224,-0.1266,-0.2344,-1.7850, 2.3308, 0.3847, 0.8258,-1.5732,50.104354,-122.940417, 0.0075, 174.3018, 842.791565, 8.0, 3.2,Walking,High, 92.3453,-1.4004,-65.7782,-138.9442,-525.4080, 0.0000, 0.0000, 0.0000
06-Feb-2019 10:36:41.228, 0.0178,-0.7203,-0.2809,-0.0905, 0.0533, 0.3434, 0.3988,-1.0858, 1.6374, 0.1718, 0.8845,-1.4138,50.104349,-122.940409, 0.2719, 157.4172, 842.843018, 8.0, 3.2,Walking,High, 92.2644, 5.8607,-69.6767,-138.8966,-524.4863, 0.0000, 0.0000, 0.0000
06-Feb-2019 10:36:41.313,-0.1547,-0.9139,-0.5258,-0.0510,-0.0407, 0.0215, 2.6262,-1.1361, 1.1318,-0.1319, 1.0103,-1.1820,50.104349,-122.940409, 0.2719, 141.0145, 842.843018, 8.0, 3.2,Walking,High, 92.2644, 5.8607,-80.3885,-138.2844,-515.7243, 0.0000, 0.0000, 0.0000
06-Feb-2019 10:36:41.412,-0.3996,-0.8773,-0.2812,-0.2042, 0.0476, 0.0916, 0.3636, 1.5143, 1.7644,-0.4372, 1.1450,-0.8038,50.104349,-122.940409, 0.2719, 144.5721, 842.843018, 8.0, 3.2,Walking,High, 92.2644, 5.8607,-85.0367,-136.6561,-509.1656, 0.0000, 0.0000, 0.0000
06-Feb-2019 10:36:41.512,-0.2831,-0.5735,-0.2213,-0.0714, 0.2637, 0.1579, 1.6031, 0.7339, 0.8104,-0.5923, 1.1269,-0.4742,50.104349,-122.940409, 0.2719, 135.2441, 842.843018, 8.0, 3.2,Walking,High, 92.2644, 5.8607,-92.1160,-132.8871,-510.6078, 0.0000, 0.0000, 0.0000
06-Feb-2019 10:36:41.611,-0.3397,-0.6630,-0.1691,-0.0291, 0.2825, 0.0877, 0.1530,-1.7384, 0.2501,-0.8117, 1.1460,-0.2968,50.104349,-122.940409, 0.2719, 133.7009, 842.843018, 8.0, 3.2,Walking,High, 92.2644, 5.8607,-93.5426,-131.6910,-507.2190, 0.0000, 0.0000, 0.0000
06-Feb-2019 10:36:41.710,-0.4777,-1.1054,-0.1674,-0.1456,-0.2030,-0.0442, 0.9872,-0.1962, 0.1420,-1.1054, 1.2009,-0.0835,50.104349,-122.940409, 0.2719, 139.4880, 842.843018, 8.0, 3.2,Walking,High, 92.2644, 5.8607,-93.2315,-130.9222,-498.9669, 0.0000, 0.0000, 0.0000
06-Feb-2019 10:36:41.809,-0.5075,-1.0021,-0.1680,-0.1678,-0.0670, 0.0158,-0.7488, 0.8940, 0.1779,-1.1214, 1.1734,-0.0052,50.104349,-122.940409, 0.2719, 137.6885, 842.843018, 8.0, 3.2,Walking,High, 92.2644, 5.8607,-94.8175,-129.5857,-499.7765, 0.0000, 0.0000, 0.0000
06-Feb-2019 10:36:41.908,-0.1926,-0.7942,-0.2895, 0.0807, 0.0913,-0.0095,-0.6154, 0.7903,-0.7687,-0.9176, 1.1791,-0.1572,50.104349,-122.940409, 0.2719, 135.3866, 842.843018, 8.0, 3.2,Walking,High, 92.2644, 5.8607,-94.2112,-131.8406,-504.5161, 0.0000, 0.0000, 0.0000
06-Feb-2019 10:36:42.008,-0.3005,-0.7925,-0.0720,-0.0178, 0.1254, 0.1372, 0.4063,-1.1443,-0.1033,-0.9196, 1.2009,-0.2420,50.104349,-122.940409, 0.2719, 137.4981, 842.843018, 8.0, 3.2,Walking,High, 92.2644, 5.8607,-92.4748,-132.9490,-502.7311, 0.0000, 0.0000, 0.0000
06-Feb-2019 10:36:42.234,-0.2689,-1.2335,-0.1008, 0.0464,-0.2790, 0.0949, 0.1316,-0.5547, 0.1786,-1.0842, 1.2092,-0.1516,50.104349,-122.940409, 0.2719, 140.3236, 842.843018, 8.0, 3.2,Walking,High, 92.2038, 11.3091,-91.6418,-132.9347,-498.6857, 0.0000, 0.0000, 0.0000
06-Feb-2019 10:36:42.268,-0.3777,-0.9499,-0.1276, 0.1040,-0.1400, 0.0700, 0.3826,-1.1588, 0.1714,-1.3256, 1.2127,-0.0064,50.104353,-122.940410, 0.2496, 146.3273, 842.970764, 8.0, 3.2,Walking,High, 92.2038, 11.3091,-90.8882,-131.8679,-493.1345, 0.0000, 0.0000, 0.0000
06-Feb-2019 10:36:42.306,-0.2058,-0.8652, 0.0252, 0.1500, 0.0331, 0.1354,-0.1666,-0.1098, 0.2397,-1.3243, 1.2097,-0.0114,50.104353,-122.940410, 0.2496, 147.5604, 842.970764, 8.0, 3.2,Walking,High, 92.2038, 11.3091,-90.8882,-131.8679,-493.1345, 0.0000, 0.0000, 0.0000
06-Feb-2019 10:36:42.405,-0.1286,-0.9508,-0.0504, 0.2368,-0.0229, 0.0303, 0.0444,-0.3644, 0.1168,-1.3603, 1.1836,-0.0010,50.104353,-122.940410, 0.2496, 149.9835, 842.970764, 8.0, 3.2,Walking,High, 92.2038, 11.3091,-91.4163,-131.2708,-492.6036, 0.0000, 0.0000, 0.0000
06-Feb-2019 10:36:42.504,-0.3759,-0.9989,-0.1547, 0.0109,-0.0879,-0.1029,-0.4435,-1.2087, 0.0702,-1.4296, 1.1797,-0.0239,50.104353,-122.940410, 0.2496, 153.7837, 842.970764, 8.0, 3.2,Walking,High, 92.2038, 11.3091,-90.5163,-130.8864,-491.2566, 0.0000, 0.0000, 0.0000
06-Feb-2019 10:36:42.604,-0.4313,-0.7686,-0.0694,-0.0160, 0.1633, 0.0175, 0.1827, 0.2052, 0.6170,-1.4060, 1.1459,-0.0950,50.104353,-122.940410, 0.2496, 158.4981, 842.970764, 8.0, 3.2,Walking,High, 92.2038, 11.3091,-89.7661,-130.8050,-490.8853, 0.0000, 0.0000, 0.0000
06-Feb-2019 10:36:42.703,-0.5507,-0.9175,-0.1426,-0.0900,-0.0037,-0.0660,-0.6649,-0.5009, 0.1950,-1.3471, 1.1081,-0.1418,50.104353,-122.940410, 0.2496, 158.4981, 842.970764, 8.0, 3.2,Walking,High, 92.2038, 11.3091,-91.2023,-129.4676,-491.7708, 0.0000, 0.0000, 0.0000
06-Feb-2019 10:36:42.802,-0.6789,-0.8795,-0.0726,-0.1928,-0.0247, 0.0390,-0.0703, 0.0369, 0.9617,-1.3499, 1.0483,-0.1816,50.104353,-122.940410, 0.2496, 161.3242, 842.970764, 8.0, 3.2,Walking,High, 92.2038, 11.3091,-92.1042,-129.3252,-492.2151, 0.0000, 0.0000, 0.0000
06-Feb-2019 10:36:42.902,-0.6492,-0.8507, 0.0732,-0.0663, 0.0317, 0.1341, 0.7135, 0.6901, 1.2597,-1.3086, 0.9512,-0.1289,50.104353,-122.940410, 0.2496, 158.8814, 842.970764, 8.0, 3.2,Walking,High, 92.2038, 11.3091,-95.9508,-126.8837,-494.5067, 0.0000, 0.0000, 0.0000
06-Feb-2019 10:36:43.001,-0.7432,-0.6943,-0.0532,-0.0592, 0.0485, 0.0047, 0.3551, 0.0755, 0.9703,-1.4140, 0.8554, 0.0042,50.104353,-122.940410, 0.2496, 156.2063, 842.970764, 8.0, 3.2,Walking,High, 92.2038, 11.3091,-100.4136,-121.0642,-493.0281, 0.0000, 0.0000, 0.0000
06-Feb-2019 10:36:43.142,-0.7666,-0.6561,-0.1612,-0.0341, 0.0385,-0.1006, 0.3132,-0.1682, 0.1515,-1.4903, 0.7961, 0.0987,50.104353,-122.940410, 0.2496, 154.9307, 842.970764, 8.0, 3.2,Walking,High, 92.2038, 11.3091,-102.6099,-117.6279,-491.6488, 0.0000, 0.0000, 0.0000
06-Feb-2019 10:36:43.231,-0.7627,-0.6247, 0.0163,-0.0524, 0.0955, 0.0232, 0.2010,-0.4179,-0.0519,-1.5327, 0.7928, 0.1217,50.104352,-122.940408, 0.0291, 154.9307, 842.943237, 8.0, 3.2,Walking,High, 92.2038, 11.3091,-102.0108,-116.7934,-489.1729, 0.0000, 0.0000, 0.0000
06-Feb-2019 10:36:43.299,-0.6954,-0.6335, 0.0017,-0.0099, 0.0907, 0.0014,-0.1790,-0.3580,-0.1102,-1.5431, 0.7974, 0.1116,50.104352,-122.940408, 0.0291, 154.9307, 842.943237, 8.0, 3.2,Walking,High, 92.2038, 11.3091,-102.1577,-117.1691,-488.9490, 0.0000, 0.0000, 0.0000
06-Feb-2019 10:36:43.398,-0.6852,-0.8463,-0.0319, 0.0654,-0.0848,-0.0299, 0.0125,-0.2070,-0.0834,-1.5513, 0.8016, 0.1003,50.104352,-122.940408, 0.0291, 156.3527, 842.943237, 8.0, 3.2,Walking,High, 92.2038, 11.3091,-101.4711,-118.5117,-487.8345, 0.0000, 0.0000, 0.0000
06-Feb-2019 10:36:43.497,-0.5734,-0.6701, 0.0199, 0.0679, 0.0301, 0.0674, 0.0537, 0.3652,-0.5552,-1.5446, 0.8379, 0.1079,50.104352,-122.940408, 0.0291, 156.3527, 842.943237, 8.0, 3.2,Walking,High, 92.2038, 11.3091,-100.5658,-119.2548,-487.7682, 0.0000, 0.0000, 0.0000
06-Feb-2019 10:36:43.597,-0.6122,-0.7515,-0.0285, 0.0362, 0.0510, 0.0095, 0.1036, 0.7039,-0.3594,-1.5171, 0.8819, 0.1051,50.104352,-122.940408, 0.0291, 156.3527, 842.943237, 8.0, 3.2,Walking,High, 92.2038, 11.3091,-100.0260,-121.5773,-488.5328, 0.0000, 0.0000, 0.0000
06-Feb-2019 10:36:43.696,-0.6098,-0.8088,-0.0372, 0.0002,-0.0092, 0.0309, 0.5592, 0.9467,-0.2874,-1.4791, 0.9066, 0.1862,50.104352,-122.940408, 0.0291, 150.9943, 842.943237, 8.0, 3.2,Walking,High, 92.2038, 11.3091,-101.1531,-121.8145,-490.4027, 0.0000, 0.0000, 0.0000
06-Feb-2019 10:36:43.796,-0.5452,-0.9204, 0.0826, 0.0429,-0.1159, 0.0972, 0.1604, 0.1132,-0.2856,-1.4356, 0.9484, 0.2137,50.104352,-122.940408, 0.0291, 146.8815, 842.943237, 8.0, 3.2,Walking,High, 92.2038, 11.3091,-101.7465,-123.3228,-492.3571, 0.0000, 0.0000, 0.0000
06-Feb-2019 10:36:43.894,-0.5810,-0.8122,-0.0146,-0.0025, 0.0023, 0.0141, 0.2681, 0.0658,-0.0731,-1.4637, 0.9664, 0.2734,50.104352,-122.940408, 0.0291, 144.3171, 842.943237, 8.0, 3.2,Walking,High, 92.2038, 11.3091,-101.7455,-123.3974,-492.1324, 0.0000, 0.0000, 0.0000
06-Feb-2019 10:36:43.994,-0.5021,-0.8870,-0.0331, 0.0611,-0.0504, 0.0066, 0.1863,-0.0556, 0.0530,-1.5013, 0.9647, 0.3234,50.104352,-122.940408, 0.0291, 143.2515, 842.943237, 8.0, 3.2,Walking,High, 92.2864, 3.8922,-101.7471,-122.8703,-491.0798, 0.0000, 0.0000, 0.0000
06-Feb-2019 10:36:44.230,-0.4678,-0.8991, 0.0115, 0.0737, 0.0524,-0.1157, 0.4272, 0.1626,-0.0828,-1.5887, 0.9793, 0.4864,50.104352,-122.940408, 0.0291, 143.2515, 842.943237, 8.0, 3.2,Walking,High, 92.2864, 3.8922,-102.0510,-122.0457,-490.1740, 0.0000, 0.0000, 0.0000
06-Feb-2019 10:36:44.260,-0.4608,-0.7150,-0.1228, 0.0608, 0.0437,-0.0061, 0.5017, 0.9249,-0.2600,-1.5705, 0.9973, 0.5342,50.104352,-122.940408, 0.0291, 140.5188, 842.943237, 8.0, 3.2,Walking,High, 92.2864, 3.8922,-102.9552,-121.7546,-491.2176, 0.0000, 0.0000, 0.0000
06-Feb-2019 10:36:44.292,-0.6522,-0.9794, 0.2323,-0.0690,-0.1063, 0.1328, 0.8320, 0.1224, 0.0928,-1.5974, 1.0000, 0.5755,50.104352,-122.940407, 0.0037, 135.3802, 842.963684, 8.0, 3.2,Walking,High, 92.2864, 3.8922,-103.1789,-122.1326,-491.8932, 0.0000, 0.0000, 0.0000
