Timestamp,accelX(g),accelY(g),accelZ(g),accelUserX(g),accelUserY(g),accelUserZ(g),gyroX(rad/s),gyroY(rad/s),gyroZ(rad/s),Roll(rads),Pitch(rads),Yaw(rads)
17-Jan-2019 10:31:58.367,-0.0108,-0.0043,-0.9865,-0.0042, 0.0040, 0.0144,-0.0094,-0.0160,-0.0107,-0.0054, 0.0074,-0.4469
17-Jan-2019 10:31:58.407,-0.0095,-0.0042,-0.9877,-0.0040, 0.0038, 0.0111,-0.0115,-0.0170,-0.0118,-0.0053, 0.0074,-0.4469
17-Jan-2019 10:31:58.446,-0.0104,-0.0044,-0.9878,-0.0053, 0.0037, 0.0164,-0.0105,-0.0160,-0.0118,-0.0053, 0.0074,-0.4469
17-Jan-2019 10:31:58.486,-0.0098,-0.0023,-0.9857,-0.0043, 0.0048, 0.0114,-0.0105,-0.0096,-0.0118,-0.0053, 0.0074,-0.4469
17-Jan-2019 10:31:58.526,-0.0104,-0.0034,-0.9873,-0.0052, 0.0042, 0.0131,-0.0105,-0.0170,-0.0129,-0.0053, 0.0074,-0.4469
17-Jan-2019 10:31:58.567,-0.0087,-0.0027,-0.9867,-0.0045, 0.0040, 0.0132,-0.0105,-0.0138,-0.0107,-0.0053, 0.0074,-0.4469
17-Jan-2019 10:31:58.605,-0.0109,-0.0039,-0.9859,-0.0052, 0.0029, 0.0130,-0.0094,-0.0128,-0.0107,-0.0053, 0.0074,-0.4469
17-Jan-2019 10:31:58.645,-0.0106,-0.0040,-0.9864,-0.0055, 0.0043, 0.0126,-0.0094,-0.0128,-0.0118,-0.0054, 0.0074,-0.4469
17-Jan-2019 10:31:58.686,-0.0104,-0.0029,-0.9868,-0.0037, 0.0034, 0.0136,-0.0094,-0.0128,-0.0118,-0.0054, 0.0074,-0.4469
17-Jan-2019 10:31:58.725,-0.0097,-0.0036,-0.9874,-0.0052, 0.0050, 0.0129,-0.0094,-0.0117,-0.0107,-0.0054, 0.0074,-0.4469
17-Jan-2019 10:31:58.765,-0.0104,-0.0018,-0.9866,-0.0036, 0.0040, 0.0129,-0.0105,-0.0138,-0.0129,-0.0054, 0.0074,-0.4469
17-Jan-2019 10:31:58.804,-0.0107,-0.0039,-0.9870,-0.0049, 0.0039, 0.0131,-0.0115,-0.0149,-0.0129,-0.0054, 0.0074,-0.4469
17-Jan-2019 10:31:58.844,-0.0098,-0.0027,-0.9864,-0.0040, 0.0036, 0.0144,-0.0115,-0.0149,-0.0107,-0.0054, 0.0074,-0.4469
17-Jan-2019 10:31:58.884,-0.0090,-0.0029,-0.9874,-0.0035, 0.0044, 0.0136,-0.0084,-0.0117,-0.0107,-0.0054, 0.0074,-0.4469
17-Jan-2019 10:31:58.924,-0.0109,-0.0032,-0.9869,-0.0055, 0.0044, 0.0129,-0.0105,-0.0128,-0.0107,-0.0054, 0.0074,-0.4469
17-Jan-2019 10:31:58.963,-0.0101,-0.0043,-0.9863,-0.0059, 0.0027, 0.0141,-0.0116,-0.0138,-0.0107,-0.0054, 0.0074,-0.4469
17-Jan-2019 10:31:59.003,-0.0101,-0.0027,-0.9864,-0.0027, 0.0054, 0.0142,-0.0105,-0.0138,-0.0118,-0.0054, 0.0074,-0.4469
17-Jan-2019 10:31:59.043,-0.0105,-0.0029,-0.9856,-0.0045, 0.0032, 0.0139,-0.0116,-0.0138,-0.0118,-0.0054, 0.0074,-0.4469
17-Jan-2019 10:31:59.082,-0.0100,-0.0042,-0.9881,-0.0011, 0.0041, 0.0114,-0.0105,-0.0160,-0.0129,-0.0054, 0.0074,-0.4469
17-Jan-2019 10:31:59.122,-0.0108,-0.0047,-0.9880,-0.0076, 0.0041, 0.0139,-0.0094,-0.0138,-0.0129,-0.0054, 0.0074,-0.4469
17-Jan-2019 10:31:59.162,-0.0101,-0.0027,-0.9843,-0.0044, 0.0042, 0.0125,-0.0116,-0.0117,-0.0118,-0.0054, 0.0074,-0.4469
17-Jan-2019 10:31:59.201,-0.0102,-0.0029,-0.9836,-0.0050, 0.0019, 0.0127,-0.0105,-0.0128,-0.0118,-0.0054, 0.0074,-0.4469
17-Jan-2019 10:31:59.241,-0.0098,-0.0052,-0.9878,-0.0047, 0.0011, 0.0096,-0.0105,-0.0149,-0.0118,-0.0055, 0.0074,-0.4469
17-Jan-2019 10:31:59.281,-0.0077,-0.0005,-0.9874,-0.0063, 0.0083, 0.0119,-0.0084,-0.0128,-0.0107,-0.0054, 0.0074,-0.4469
17-Jan-2019 10:31:59.321,-0.0100,-0.0036,-0.9878,-0.0024, 0.0007, 0.0155,-0.0115,-0.0170,-0.0129,-0.0055, 0.0074,-0.4469
17-Jan-2019 10:31:59.360,-0.0075,-0.0063,-0.9853,-0.0066, 0.0068, 0.0144,-0.0084,-0.0117,-0.0118,-0.0055, 0.0074,-0.4469
17-Jan-2019 10:31:59.400,-0.0132, 0.0006,-0.9875,-0.0064, 0.0050, 0.0129,-0.0116,-0.0128,-0.0107,-0.0055, 0.0074,-0.4469
17-Jan-2019 10:31:59.440,-0.0063,-0.0047,-0.9846,-0.0022, 0.0012, 0.0134,-0.0105,-0.0117,-0.0118,-0.0055, 0.0074,-0.4469
17-Jan-2019 10:31:59.479,-0.0107,-0.0007,-0.9908,-0.0047, 0.0073, 0.0150,-0.0115,-0.0213,-0.0118,-0.0055, 0.0074,-0.4469
17-Jan-2019 10:31:59.519,-0.0080,-0.0059,-0.9869,-0.0054, 0.0024, 0.0153,-0.0095,-0.0096,-0.0107,-0.0055, 0.0074,-0.4469
17-Jan-2019 10:31:59.560,-0.0142,-0.0018,-0.9843,-0.0034, 0.0070, 0.0128,-0.0073,-0.0117,-0.0118,-0.0055, 0.0074,-0.4469
17-Jan-2019 10:31:59.599,-0.0073,-0.0040,-0.9848,-0.0018, 0.0009, 0.0146,-0.0147,-0.0202,-0.0118,-0.0055, 0.0074,-0.4469
17-Jan-2019 10:31:59.639,-0.0098,-0.0037,-0.9867,-0.0067, 0.0068, 0.0127,-0.0073,-0.0096,-0.0128,-0.0055, 0.0074,-0.4469
17-Jan-2019 10:31:59.678,-0.0113,-0.0006,-0.9884,-0.0060,-0.0003, 0.0102,-0.0094,-0.0191,-0.0118,-0.0055, 0.0074,-0.4468
17-Jan-2019 10:31:59.718,-0.0100,-0.0047,-0.9814,-0.0036, 0.0043, 0.0134,-0.0094,-0.0117,-0.0129,-0.0055, 0.0074,-0.4468
17-Jan-2019 10:31:59.758,-0.0097,-0.0004,-0.9873,-0.0042, 0.0041, 0.0133,-0.0115,-0.0181,-0.0118,-0.0056, 0.0074,-0.4468
17-Jan-2019 10:31:59.797,-0.0080,-0.0054,-0.9854,-0.0072, 0.0018, 0.0137,-0.0116,-0.0128,-0.0129,-0.0055, 0.0074,-0.4469
17-Jan-2019 10:31:59.837,-0.0116, 0.0011,-0.9876,-0.0051, 0.0085, 0.0112,-0.0105,-0.0117,-0.0129,-0.0056, 0.0074,-0.4469
17-Jan-2019 10:31:59.877,-0.0081,-0.0066,-0.9873,-0.0032, 0.0021, 0.0146,-0.0115,-0.0181,-0.0118,-0.0056, 0.0074,-0.4469
17-Jan-2019 10:31:59.917,-0.0112, 0.0000,-0.9858,-0.0054, 0.0083, 0.0125,-0.0094,-0.0096,-0.0128,-0.0055, 0.0074,-0.4469
17-Jan-2019 10:31:59.956,-0.0085,-0.0033,-0.9873,-0.0029, 0.0027, 0.0122,-0.0094,-0.0191,-0.0118,-0.0056, 0.0074,-0.4469
17-Jan-2019 10:31:59.996,-0.0134,-0.0041,-0.9826,-0.0061, 0.0025, 0.0147,-0.0095,-0.0085,-0.0128,-0.0055, 0.0074,-0.4469
17-Jan-2019 10:32:00.035,-0.0092,-0.0038,-0.9884,-0.0043, 0.0025, 0.0160,-0.0126,-0.0170,-0.0107,-0.0056, 0.0073,-0.4469
17-Jan-2019 10:32:00.075,-0.0120,-0.0030,-0.9845,-0.0048, 0.0059, 0.0096,-0.0116,-0.0106,-0.0118,-0.0056, 0.0073,-0.4469
17-Jan-2019 10:32:00.115,-0.0091,-0.0022,-0.9876,-0.0056, 0.0029, 0.0160,-0.0094,-0.0128,-0.0118,-0.0056, 0.0073,-0.4469
17-Jan-2019 10:32:00.155,-0.0098,-0.0046,-0.9893,-0.0032, 0.0050, 0.0119,-0.0094,-0.0170,-0.0118,-0.0056, 0.0073,-0.4469
17-Jan-2019 10:32:00.195,-0.0096,-0.0028,-0.9837,-0.0056, 0.0018, 0.0120,-0.0084,-0.0128,-0.0107,-0.0056, 0.0074,-0.4469
17-Jan-2019 10:32:00.235,-0.0102,-0.0056,-0.9873,-0.0038, 0.0047, 0.0160,-0.0116,-0.0117,-0.0129,-0.0056, 0.0074,-0.4469
17-Jan-2019 10:32:00.274,-0.0122, 0.0003,-0.9841,-0.0050, 0.0022, 0.0100,-0.0094,-0.0117,-0.0129,-0.0056, 0.0074,-0.4469
17-Jan-2019 10:32:00.314,-0.0052,-0.0056,-0.9891,-0.0030, 0.0050, 0.0165,-0.0126,-0.0202,-0.0118,-0.0057, 0.0073,-0.4469
17-Jan-2019 10:32:00.354,-0.0146,-0.0021,-0.9857,-0.0046, 0.0061, 0.0100,-0.0095,-0.0085,-0.0118,-0.0056, 0.0073,-0.4469
17-Jan-2019 10:32:00.393,-0.0061,-0.0046,-0.9886,-0.0051, 0.0021, 0.0157,-0.0115,-0.0192,-0.0129,-0.0057, 0.0073,-0.4469
17-Jan-2019 10:32:00.433,-0.0134,-0.0029,-0.9845,-0.0034, 0.0035, 0.0111,-0.0126,-0.0096,-0.0107,-0.0056, 0.0072,-0.4469
17-Jan-2019 10:32:00.473,-0.0074,-0.0032,-0.9879,-0.0063, 0.0035, 0.0132,-0.0126,-0.0160,-0.0118,-0.0057, 0.0072,-0.4469
17-Jan-2019 10:32:00.512,-0.0125,-0.0032,-0.9883,-0.0034, 0.0056, 0.0125,-0.0105,-0.0128,-0.0129,-0.0057, 0.0071,-0.4469
17-Jan-2019 10:32:00.552,-0.0080,-0.0022,-0.9852,-0.0055, 0.0038, 0.0141,-0.0094,-0.0149,-0.0118,-0.0057, 0.0071,-0.4469
17-Jan-2019 10:32:00.592,-0.0116,-0.0054,-0.9877,-0.0011, 0.0057, 0.0142,-0.0116,-0.0138,-0.0118,-0.0057, 0.0071,-0.4469
17-Jan-2019 10:32:00.631,-0.0095,-0.0014,-0.9880,-0.0061, 0.0049, 0.0146,-0.0094,-0.0128,-0.0107,-0.0057, 0.0071,-0.4469
17-Jan-2019 10:32:00.672,-0.0084,-0.0065,-0.9866,-0.0030, 0.0032, 0.0121,-0.0105,-0.0160,-0.0118,-0.0057, 0.0071,-0.4469
17-Jan-2019 10:32:00.712,-0.0105,-0.0035,-0.9863,-0.0046, 0.0030, 0.0138,-0.0094,-0.0138,-0.0118,-0.0057, 0.0071,-0.4469
17-Jan-2019 10:32:00.751,-0.0098,-0.0025,-0.9866,-0.0027, 0.0043, 0.0124,-0.0116,-0.0138,-0.0107,-0.0057, 0.0071,-0.4469
17-Jan-2019 10:32:00.791,-0.0111,-0.0039,-0.9869,-0.0034, 0.0023, 0.0126,-0.0115,-0.0160,-0.0129,-0.0057, 0.0070,-0.4469
17-Jan-2019 10:32:00.831,-0.0093,-0.0035,-0.9855,-0.0033, 0.0021, 0.0127,-0.0094,-0.0117,-0.0118,-0.0057, 0.0070,-0.4469
17-Jan-2019 10:32:00.870,-0.0103,-0.0041,-0.9850,-0.0034, 0.0032, 0.0104,-0.0105,-0.0149,-0.0118,-0.0057, 0.0070,-0.4469
17-Jan-2019 10:32:00.910,-0.0102,-0.0045,-0.9853,-0.0032,-0.0013, 0.0142,-0.0115,-0.0138,-0.0129,-0.0057, 0.0070,-0.4469
17-Jan-2019 10:32:00.950,-0.0084, 0.0003,-0.9866,-0.0065, 0.0043, 0.0142,-0.0094,-0.0160,-0.0118,-0.0058, 0.0070,-0.4469
17-Jan-2019 10:32:00.989,-0.0098,-0.0061,-0.9852,-0.0034, 0.0035, 0.0113,-0.0115,-0.0160,-0.0129,-0.0058, 0.0070,-0.4470
17-Jan-2019 10:32:01.030,-0.0108,-0.0023,-0.9859,-0.0043, 0.0046, 0.0134,-0.0084,-0.0106,-0.0107,-0.0058, 0.0069,-0.4469
17-Jan-2019 10:32:01.069,-0.0095,-0.0029,-0.9838,-0.0040, 0.0031, 0.0120,-0.0115,-0.0149,-0.0129,-0.0058, 0.0069,-0.4469
17-Jan-2019 10:32:01.109,-0.0083,-0.0031,-0.9881,-0.0030, 0.0027, 0.0137,-0.0105,-0.0149,-0.0107,-0.0058, 0.0069,-0.4469
17-Jan-2019 10:32:01.149,-0.0112,-0.0031,-0.9854,-0.0032, 0.0020, 0.0140,-0.0105,-0.0138,-0.0118,-0.0058, 0.0069,-0.4469
17-Jan-2019 10:32:01.189,-0.0092,-0.0048,-0.9868,-0.0039, 0.0047, 0.0126,-0.0116,-0.0128,-0.0118,-0.0058, 0.0069,-0.4469
17-Jan-2019 10:32:01.228,-0.0106,-0.0007,-0.9866,-0.0040, 0.0070, 0.0137,-0.0105,-0.0149,-0.0107,-0.0058, 0.0069,-0.4469
17-Jan-2019 10:32:01.268,-0.0096,-0.0066,-0.9864,-0.0026, 0.0029, 0.0134,-0.0094,-0.0138,-0.0129,-0.0058, 0.0069,-0.4469
17-Jan-2019 10:32:01.308,-0.0100,-0.0029,-0.9865,-0.0052, 0.0064, 0.0140,-0.0105,-0.0117,-0.0129,-0.0058, 0.0069,-0.4469
17-Jan-2019 10:32:01.347,-0.0095,-0.0040,-0.9861,-0.0043, 0.0016, 0.0134,-0.0105,-0.0128,-0.0107,-0.0058, 0.0068,-0.4469
17-Jan-2019 10:32:01.386,-0.0099,-0.0037,-0.9874,-0.0044, 0.0037, 0.0128,-0.0105,-0.0128,-0.0118,-0.0058, 0.0068,-0.4469
17-Jan-2019 10:32:01.427,-0.0108,-0.0015,-0.9847,-0.0023, 0.0043, 0.0122,-0.0115,-0.0149,-0.0129,-0.0058, 0.0068,-0.4469
17-Jan-2019 10:32:01.467,-0.0085,-0.0039,-0.9862,-0.0044, 0.0031, 0.0137,-0.0115,-0.0160,-0.0118,-0.0058, 0.0068,-0.4469
17-Jan-2019 10:32:01.506,-0.0100,-0.0029,-0.9870,-0.0045, 0.0041, 0.0127,-0.0094,-0.0127,-0.0139,-0.0058, 0.0068,-0.4469
17-Jan-2019 10:32:01.546,-0.0109,-0.0058,-0.9875,-0.0037, 0.0021, 0.0132,-0.0116,-0.0138,-0.0118,-0.0058, 0.0068,-0.4470
17-Jan-2019 10:32:01.586,-0.0094,-0.0008,-0.9845,-0.0021, 0.0038, 0.0137,-0.0084,-0.0149,-0.0118,-0.0058, 0.0068,-0.4469
17-Jan-2019 10:32:01.625,-0.0098,-0.0050,-0.9875,-0.0039, 0.0027, 0.0155,-0.0115,-0.0149,-0.0129,-0.0058, 0.0068,-0.4470
17-Jan-2019 10:32:01.665,-0.0108,-0.0047,-0.9869,-0.0049, 0.0036, 0.0129,-0.0094,-0.0128,-0.0129,-0.0059, 0.0068,-0.4470
17-Jan-2019 10:32:01.705,-0.0100,-0.0025,-0.9853,-0.0021, 0.0045, 0.0144,-0.0126,-0.0138,-0.0118,-0.0059, 0.0068,-0.4470
17-Jan-2019 10:32:01.744,-0.0109,-0.0031,-0.9870,-0.0040, 0.0046, 0.0137,-0.0105,-0.0149,-0.0118,-0.0059, 0.0068,-0.4469
17-Jan-2019 10:32:01.784,-0.0079,-0.0061,-0.9858,-0.0031,-0.0006, 0.0144,-0.0116,-0.0138,-0.0107,-0.0060, 0.0067,-0.4469
17-Jan-2019 10:32:01.823,-0.0103,-0.0023,-0.9859,-0.0029, 0.0048, 0.0121,-0.0105,-0.0138,-0.0118,-0.0060, 0.0068,-0.4469
17-Jan-2019 10:32:01.863,-0.0102,-0.0039,-0.9851,-0.0038, 0.0035, 0.0141,-0.0084,-0.0127,-0.0128,-0.0060, 0.0068,-0.4469
17-Jan-2019 10:32:01.903,-0.0090,-0.0042,-0.9856,-0.0036, 0.0028, 0.0147,-0.0105,-0.0149,-0.0129,-0.0060, 0.0068,-0.4470
17-Jan-2019 10:32:01.944,-0.0226,-0.0083,-0.9602,-0.0078,-0.0012, 0.0124,-0.0115,-0.0192,-0.0118,-0.0060, 0.0068,-0.4470
17-Jan-2019 10:32:01.982,-0.0054, 0.0005,-0.9621, 0.0016, 0.0020, 0.0402,-0.0073,-0.0096,-0.0128,-0.0059, 0.0069,-0.4470
17-Jan-2019 10:32:02.022,-0.0154,-0.0015,-0.9760,-0.0079, 0.0083, 0.0269,-0.0094,-0.0128,-0.0129,-0.0059, 0.0068,-0.4470
17-Jan-2019 10:32:02.063,-0.0053,-0.0034,-1.0118,-0.0014, 0.0029,-0.0044,-0.0115,-0.0160,-0.0118,-0.0059, 0.0068,-0.4470
17-Jan-2019 10:32:02.102,-0.0152,-0.0054,-1.0326,-0.0105, 0.0019,-0.0292,-0.0105,-0.0138,-0.0118,-0.0059, 0.0068,-0.4470
17-Jan-2019 10:32:02.142,-0.0042,-0.0060,-0.9917,-0.0034, 0.0011, 0.0256,-0.0136,-0.0213,-0.0118,-0.0060, 0.0068,-0.4470
17-Jan-2019 10:32:02.182,-0.0151,-0.0051,-0.9845,-0.0044, 0.0065, 0.0134,-0.0137,-0.0138,-0.0129,-0.0060, 0.0067,-0.4470
17-Jan-2019 10:32:02.222, 0.0025, 0.0007,-0.9828, 0.0022, 0.0054, 0.0121,-0.0116,-0.0128,-0.0129,-0.0060, 0.0067,-0.4470
17-Jan-2019 10:32:02.261,-0.0169,-0.0065,-0.9840,-0.0089, 0.0052, 0.0160,-0.0116,-0.0128,-0.0118,-0.0060, 0.0067,-0.4470
17-Jan-2019 10:32:02.301,-0.0110,-0.0015,-0.9831,-0.0016, 0.0016, 0.0128,-0.0094,-0.0138,-0.0118,-0.0060, 0.0067,-0.4470
17-Jan-2019 10:32:02.341,-0.0046,-0.0023,-0.9858,-0.0000, 0.0076, 0.0108,-0.0116,-0.0138,-0.0118,-0.0060, 0.0067,-0.4470
17-Jan-2019 10:32:02.380,-0.0106,-0.0008,-0.9884,-0.0087, 0.0054, 0.0137,-0.0105,-0.0160,-0.0118,-0.0060, 0.0067,-0.4470
17-Jan-2019 10:32:02.420,-0.0105,-0.0061,-0.9873,-0.0022, 0.0013, 0.0149,-0.0094,-0.0149,-0.0129,-0.0060, 0.0067,-0.4469
17-Jan-2019 10:32:02.460,-0.0129,-0.0044,-0.9871,-0.0067, 0.0020, 0.0168,-0.0116,-0.0128,-0.0118,-0.0060, 0.0067,-0.4469
17-Jan-2019 10:32:02.500,-0.0108,-0.0021,-0.9839,-0.0020, 0.0018, 0.0151,-0.0094,-0.0149,-0.0129,-0.0061, 0.0067,-0.4469
17-Jan-2019 10:32:02.541,-0.0160,-0.0013,-0.9836,-0.0050, 0.0063, 0.0138,-0.0105,-0.0117,-0.0118,-0.0061, 0.0067,-0.4469
17-Jan-2019 10:32:02.579,-0.0094,-0.0023,-0.9614, 0.0011, 0.0041, 0.0291,-0.0116,-0.0096,-0.0118,-0.0060, 0.0066,-0.4470
17-Jan-2019 10:32:02.620,-0.0083,-0.0050,-0.9212,-0.0045,-0.0011, 0.0738,-0.0095,-0.0085,-0.0118,-0.0060, 0.0066,-0.4470
17-Jan-2019 10:32:02.659,-0.0159,-0.0050,-0.9042,-0.0047, 0.0016, 0.0927,-0.0105,-0.0170,-0.0118,-0.0060, 0.0066,-0.4470
17-Jan-2019 10:32:02.698,-0.0071,-0.0038,-0.8956,-0.0014, 0.0025, 0.1097,-0.0084,-0.0138,-0.0118,-0.0060, 0.0066,-0.4470
17-Jan-2019 10:32:02.738,-0.0183,-0.0058,-0.9028,-0.0046, 0.0029, 0.1022,-0.0094,-0.0149,-0.0129,-0.0061, 0.0066,-0.4469
17-Jan-2019 10:32:02.778,-0.0065,-0.0039,-0.9102,-0.0036, 0.0051, 0.0942,-0.0094,-0.0117,-0.0129,-0.0060, 0.0066,-0.4469
17-Jan-2019 10:32:02.817,-0.0117,-0.0037,-0.9217,-0.0031, 0.0041, 0.0833,-0.0105,-0.0149,-0.0107,-0.0061, 0.0065,-0.4469
17-Jan-2019 10:32:02.857,-0.0090,-0.0019,-0.9242,-0.0050, 0.0025, 0.0758,-0.0105,-0.0128,-0.0129,-0.0061, 0.0066,-0.4469
17-Jan-2019 10:32:02.897,-0.0079,-0.0015,-0.9197,-0.0038, 0.0047, 0.0806,-0.0105,-0.0149,-0.0118,-0.0061, 0.0066,-0.4469
17-Jan-2019 10:32:02.937,-0.0087,-0.0034,-0.9128,-0.0060, 0.0021, 0.0855,-0.0116,-0.0138,-0.0118,-0.0061, 0.0066,-0.4469
17-Jan-2019 10:32:02.976,-0.0067,-0.0027,-0.8995,-0.0050, 0.0025, 0.0979,-0.0094,-0.0128,-0.0129,-0.0061, 0.0065,-0.4470
17-Jan-2019 10:32:03.015,-0.0102,-0.0021,-0.8896,-0.0058, 0.0042, 0.1070,-0.0105,-0.0160,-0.0129,-0.0061, 0.0065,-0.4470
17-Jan-2019 10:32:03.055,-0.0063,-0.0027,-0.8775,-0.0035, 0.0026, 0.1211,-0.0105,-0.0128,-0.0129,-0.0061, 0.0065,-0.4470
17-Jan-2019 10:32:03.095,-0.0081,-0.0050,-0.8716,-0.0009, 0.0036, 0.1275,-0.0094,-0.0127,-0.0139,-0.0061, 0.0065,-0.4470
17-Jan-2019 10:32:03.135,-0.0086,-0.0036,-0.8700,-0.0036, 0.0036, 0.1309,-0.0105,-0.0170,-0.0129,-0.0061, 0.0065,-0.4470
17-Jan-2019 10:32:03.175,-0.0088,-0.0043,-0.8694,-0.0022, 0.0029, 0.1317,-0.0105,-0.0138,-0.0129,-0.0061, 0.0065,-0.4470
17-Jan-2019 10:32:03.214,-0.0081,-0.0029,-0.8764,-0.0027, 0.0042, 0.1256,-0.0094,-0.0149,-0.0107,-0.0061, 0.0065,-0.4470
17-Jan-2019 10:32:03.254,-0.0086,-0.0012,-0.8780,-0.0018, 0.0050, 0.1211,-0.0094,-0.0149,-0.0118,-0.0061, 0.0066,-0.4470
17-Jan-2019 10:32:03.293,-0.0090,-0.0029,-0.8797,-0.0020, 0.0025, 0.1188,-0.0116,-0.0138,-0.0107,-0.0061, 0.0066,-0.4470
17-Jan-2019 10:32:03.333,-0.0098,-0.0032,-0.8807,-0.0029, 0.0050, 0.1169,-0.0116,-0.0128,-0.0118,-0.0061, 0.0066,-0.4470
17-Jan-2019 10:32:03.373,-0.0058,-0.0045,-0.8919,-0.0001, 0.0009, 0.1137,-0.0094,-0.0138,-0.0107,-0.0060, 0.0066,-0.4470
17-Jan-2019 10:32:03.413,-0.0106,-0.0035,-0.9281,-0.0034, 0.0024, 0.0807,-0.0105,-0.0149,-0.0118,-0.0061, 0.0066,-0.4469
17-Jan-2019 10:32:03.453,-0.0092,-0.0052,-0.9719,-0.0030, 0.0039, 0.0375,-0.0105,-0.0128,-0.0107,-0.0060, 0.0066,-0.4469
17-Jan-2019 10:32:03.493,-0.0110,-0.0028,-1.0005,-0.0049, 0.0038, 0.0058,-0.0094,-0.0138,-0.0107,-0.0061, 0.0067,-0.4469
17-Jan-2019 10:32:03.533,-0.0111,-0.0004,-1.0137,-0.0066, 0.0067,-0.0121,-0.0084,-0.0127,-0.0128,-0.0061, 0.0067,-0.4469
17-Jan-2019 10:32:03.572,-0.0099,-0.0048,-1.0118,-0.0029, 0.0014,-0.0152,-0.0084,-0.0149,-0.0118,-0.0061, 0.0068,-0.4469
17-Jan-2019 10:32:03.612,-0.0125,-0.0045,-1.0066,-0.0054, 0.0041,-0.0057,-0.0094,-0.0106,-0.0139,-0.0060, 0.0068,-0.4469
17-Jan-2019 10:32:03.652,-0.0086,-0.0022,-0.9985,-0.0032, 0.0037,-0.0004,-0.0105,-0.0149,-0.0139,-0.0060, 0.0068,-0.4470
17-Jan-2019 10:32:03.692,-0.0116,-0.0087,-0.9854,-0.0043, 0.0006, 0.0096,-0.0105,-0.0117,-0.0129,-0.0060, 0.0067,-0.4470
17-Jan-2019 10:32:03.732,-0.0086,-0.0032,-0.9820,-0.0037, 0.0003, 0.0198,-0.0116,-0.0128,-0.0118,-0.0060, 0.0067,-0.4470
17-Jan-2019 10:32:03.771,-0.0076, 0.0002,-0.9761,-0.0021, 0.0053, 0.0212,-0.0115,-0.0160,-0.0118,-0.0060, 0.0067,-0.4470
17-Jan-2019 10:32:03.811,-0.0097,-0.0039,-0.9778,-0.0047, 0.0040, 0.0224,-0.0126,-0.0138,-0.0118,-0.0060, 0.0067,-0.4470
17-Jan-2019 10:32:03.851,-0.0107,-0.0067,-0.9818,-0.0035,-0.0005, 0.0174,-0.0094,-0.0138,-0.0129,-0.0060, 0.0068,-0.4470
17-Jan-2019 10:32:03.891,-0.0106,-0.0023,-0.9885,-0.0064, 0.0067, 0.0117,-0.0073,-0.0106,-0.0128,-0.0060, 0.0068,-0.4470
17-Jan-2019 10:32:03.930,-0.0097,-0.0059,-0.9877,-0.0044, 0.0011, 0.0130,-0.0094,-0.0149,-0.0129,-0.0060, 0.0068,-0.4470
17-Jan-2019 10:32:03.970,-0.0118,-0.0023,-0.9879,-0.0068, 0.0016, 0.0113,-0.0115,-0.0192,-0.0129,-0.0060, 0.0068,-0.4470
17-Jan-2019 10:32:04.009,-0.0094,-0.0031,-0.9885,-0.0026, 0.0073, 0.0083,-0.0084,-0.0064,-0.0107,-0.0060, 0.0068,-0.4470
17-Jan-2019 10:32:04.049,-0.0110,-0.0043,-0.9895,-0.0041, 0.0006, 0.0154,-0.0115,-0.0149,-0.0129,-0.0060, 0.0068,-0.4470
17-Jan-2019 10:32:04.089,-0.0099,-0.0035,-0.9857,-0.0043, 0.0020, 0.0123,-0.0115,-0.0149,-0.0118,-0.0060, 0.0068,-0.4470
17-Jan-2019 10:32:04.129,-0.0099,-0.0018,-0.9862,-0.0037, 0.0040, 0.0106,-0.0073,-0.0096,-0.0128,-0.0060, 0.0068,-0.4470
17-Jan-2019 10:32:04.168,-0.0101,-0.0059,-0.9862,-0.0043, 0.0019, 0.0145,-0.0105,-0.0149,-0.0118,-0.0060, 0.0068,-0.4470
17-Jan-2019 10:32:04.208,-0.0103,-0.0035,-0.9869,-0.0039, 0.0035, 0.0149,-0.0094,-0.0138,-0.0118,-0.0060, 0.0068,-0.4470
17-Jan-2019 10:32:04.248,-0.0118,-0.0045,-0.9811,-0.0044, 0.0038, 0.0149,-0.0083,-0.0159,-0.0118,-0.0060, 0.0068,-0.4470
17-Jan-2019 10:32:04.287,-0.0098,-0.0031,-0.9843,-0.0045, 0.0035, 0.0179,-0.0084,-0.0138,-0.0118,-0.0060, 0.0068,-0.4470
17-Jan-2019 10:32:04.327,-0.0100,-0.0044,-0.9826,-0.0051, 0.0025, 0.0161,-0.0105,-0.0170,-0.0118,-0.0060, 0.0068,-0.4470
17-Jan-2019 10:32:04.367,-0.0104,-0.0040,-0.9865,-0.0032, 0.0035, 0.0149,-0.0094,-0.0106,-0.0118,-0.0060, 0.0068,-0.4470
17-Jan-2019 10:32:04.407,-0.0104,-0.0045,-0.9889,-0.0048, 0.0012, 0.0134,-0.0115,-0.0170,-0.0118,-0.0061, 0.0068,-0.4470
17-Jan-2019 10:32:04.446,-0.0098,-0.0033,-0.9897,-0.0036, 0.0037, 0.0084,-0.0105,-0.0128,-0.0118,-0.0060, 0.0068,-0.4470
17-Jan-2019 10:32:04.486,-0.0100,-0.0033,-0.9878,-0.0040, 0.0015, 0.0118,-0.0105,-0.0128,-0.0129,-0.0060, 0.0068,-0.4470
17-Jan-2019 10:32:04.526,-0.0099,-0.0038,-0.9869,-0.0040, 0.0040, 0.0117,-0.0084,-0.0106,-0.0139,-0.0060, 0.0068,-0.4470
17-Jan-2019 10:32:04.566,-0.0094,-0.0022,-0.9876,-0.0033, 0.0032, 0.0144,-0.0105,-0.0181,-0.0129,-0.0060, 0.0068,-0.4470
17-Jan-2019 10:32:04.606,-0.0096,-0.0040,-0.9835,-0.0032, 0.0024, 0.0116,-0.0115,-0.0149,-0.0118,-0.0061, 0.0068,-0.4470
17-Jan-2019 10:32:04.645,-0.0100,-0.0033,-0.9863,-0.0038, 0.0031, 0.0162,-0.0094,-0.0106,-0.0128,-0.0060, 0.0068,-0.4471
17-Jan-2019 10:32:04.685,-0.0090,-0.0040,-0.9868,-0.0039, 0.0023, 0.0122,-0.0115,-0.0149,-0.0129,-0.0061, 0.0068,-0.4471
17-Jan-2019 10:32:04.725,-0.0108,-0.0033,-0.9864,-0.0044, 0.0026, 0.0128,-0.0094,-0.0106,-0.0128,-0.0061, 0.0068,-0.4471
17-Jan-2019 10:32:04.764,-0.0098,-0.0048,-0.9855,-0.0034, 0.0021, 0.0130,-0.0105,-0.0117,-0.0118,-0.0061, 0.0068,-0.4471
17-Jan-2019 10:32:04.804,-0.0099,-0.0032,-0.9881,-0.0030, 0.0024, 0.0143,-0.0105,-0.0160,-0.0118,-0.0061, 0.0068,-0.4471
17-Jan-2019 10:32:04.844,-0.0095,-0.0042,-0.9869,-0.0029, 0.0034, 0.0118,-0.0116,-0.0138,-0.0107,-0.0061, 0.0067,-0.4471
17-Jan-2019 10:32:04.884,-0.0105,-0.0042,-0.9875,-0.0035, 0.0043, 0.0136,-0.0094,-0.0106,-0.0118,-0.0061, 0.0068,-0.4471
17-Jan-2019 10:32:04.923,-0.0099,-0.0027,-0.9853,-0.0037, 0.0020, 0.0141,-0.0094,-0.0128,-0.0118,-0.0061, 0.0067,-0.4471
17-Jan-2019 10:32:04.962,-0.0111,-0.0035,-0.9843,-0.0049, 0.0029, 0.0134,-0.0073,-0.0106,-0.0118,-0.0060, 0.0068,-0.4471
17-Jan-2019 10:32:05.002,-0.0092,-0.0027,-0.9869,-0.0033, 0.0031, 0.0149,-0.0105,-0.0117,-0.0139,-0.0061, 0.0068,-0.4472
17-Jan-2019 10:32:05.042,-0.0089,-0.0040,-0.9872,-0.0039, 0.0028, 0.0116,-0.0115,-0.0149,-0.0129,-0.0060, 0.0068,-0.4472
17-Jan-2019 10:32:05.082,-0.0097,-0.0056,-0.9858,-0.0027, 0.0040, 0.0126,-0.0105,-0.0117,-0.0129,-0.0060, 0.0068,-0.4472
17-Jan-2019 10:32:05.122,-0.0114,-0.0041,-0.9855,-0.0045, 0.0034, 0.0144,-0.0083,-0.0159,-0.0118,-0.0061, 0.0068,-0.4472
17-Jan-2019 10:32:05.161,-0.0119,-0.0036,-0.9852,-0.0044, 0.0035, 0.0135,-0.0094,-0.0128,-0.0107,-0.0060, 0.0068,-0.4472
17-Jan-2019 10:32:05.202,-0.0088,-0.0029,-0.9878,-0.0030, 0.0012, 0.0126,-0.0116,-0.0138,-0.0118,-0.0061, 0.0068,-0.4472
17-Jan-2019 10:32:05.241,-0.0111,-0.0062,-0.9880,-0.0043, 0.0032, 0.0133,-0.0094,-0.0149,-0.0118,-0.0061, 0.0068,-0.4472
17-Jan-2019 10:32:05.281,-0.0102,-0.0049,-0.9884,-0.0040, 0.0053, 0.0122,-0.0094,-0.0128,-0.0118,-0.0061, 0.0068,-0.4473
17-Jan-2019 10:32:05.321,-0.0118,-0.0039,-0.9849,-0.0031, 0.0028, 0.0125,-0.0083,-0.0149,-0.0139,-0.0061, 0.0068,-0.4473
17-Jan-2019 10:32:05.360,-0.0102,-0.0051,-0.9875,-0.0027, 0.0036, 0.0134,-0.0084,-0.0138,-0.0107,-0.0061, 0.0068,-0.4473
17-Jan-2019 10:32:05.399,-0.0113,-0.0033,-0.9873,-0.0042, 0.0038, 0.0125,-0.0094,-0.0128,-0.0129,-0.0062, 0.0068,-0.4473
17-Jan-2019 10:32:05.440,-0.0084,-0.0048,-0.9883,-0.0029, 0.0009, 0.0115,-0.0105,-0.0160,-0.0129,-0.0062, 0.0068,-0.4474
17-Jan-2019 10:32:05.479,-0.0109,-0.0038,-0.9854,-0.0040, 0.0027, 0.0145,-0.0094,-0.0149,-0.0129,-0.0061, 0.0068,-0.4474
17-Jan-2019 10:32:05.519,-0.0096,-0.0031,-0.9873,-0.0020, 0.0025, 0.0153,-0.0105,-0.0117,-0.0118,-0.0062, 0.0068,-0.4474
17-Jan-2019 10:32:05.558,-0.0112,-0.0033,-0.9855,-0.0056, 0.0030, 0.0140,-0.0105,-0.0138,-0.0129,-0.0062, 0.0068,-0.4474
17-Jan-2019 10:32:05.599,-0.0080,-0.0037,-0.9887,-0.0035, 0.0024, 0.0108,-0.0105,-0.0149,-0.0118,-0.0062, 0.0068,-0.4474
17-Jan-2019 10:32:05.638,-0.0110,-0.0051,-0.9882,-0.0026, 0.0029, 0.0129,-0.0094,-0.0159,-0.0129,-0.0062, 0.0068,-0.4475
17-Jan-2019 10:32:05.678,-0.0082,-0.0051,-0.9862,-0.0024, 0.0013, 0.0138,-0.0105,-0.0128,-0.0129,-0.0062, 0.0068,-0.4475
17-Jan-2019 10:32:05.718,-0.0108,-0.0026,-0.9861,-0.0048, 0.0027, 0.0132,-0.0115,-0.0149,-0.0118,-0.0062, 0.0068,-0.4475
17-Jan-2019 10:32:05.758,-0.0083,-0.0044,-0.9852,-0.0038, 0.0031, 0.0125,-0.0115,-0.0149,-0.0118,-0.0062, 0.0068,-0.4475
17-Jan-2019 10:32:05.797,-0.0100,-0.0040,-0.9884,-0.0028, 0.0033, 0.0123,-0.0105,-0.0128,-0.0129,-0.0062, 0.0068,-0.4476
17-Jan-2019 10:32:05.836,-0.0098,-0.0041,-0.9863,-0.0040, 0.0033, 0.0143,-0.0105,-0.0149,-0.0129,-0.0062, 0.0068,-0.4476
17-Jan-2019 10:32:05.877,-0.0110,-0.0043,-0.9854,-0.0035, 0.0021, 0.0122,-0.0094,-0.0128,-0.0129,-0.0062, 0.0068,-0.4476
17-Jan-2019 10:32:05.917,-0.0095,-0.0044,-0.9870,-0.0030, 0.0022, 0.0137,-0.0116,-0.0117,-0.0118,-0.0062, 0.0068,-0.4476
17-Jan-2019 10:32:05.956,-0.0095,-0.0039,-0.9884,-0.0029, 0.0026, 0.0134,-0.0084,-0.0138,-0.0129,-0.0063, 0.0068,-0.4477
17-Jan-2019 10:32:05.996,-0.0108,-0.0033,-0.9879,-0.0045, 0.0038, 0.0121,-0.0115,-0.0138,-0.0129,-0.0063, 0.0068,-0.4477
17-Jan-2019 10:32:06.036,-0.0092,-0.0048,-0.9845,-0.0034, 0.0023, 0.0119,-0.0094,-0.0117,-0.0129,-0.0062, 0.0068,-0.4477
17-Jan-2019 10:32:06.075,-0.0091,-0.0047,-0.9877,-0.0019, 0.0032, 0.0130,-0.0105,-0.0117,-0.0118,-0.0063, 0.0068,-0.4477
17-Jan-2019 10:32:06.115,-0.0098,-0.0043,-0.9847,-0.0044, 0.0017, 0.0140,-0.0094,-0.0138,-0.0129,-0.0062, 0.0068,-0.4477
17-Jan-2019 10:32:06.155,-0.0088,-0.0015,-0.9860,-0.0034, 0.0037, 0.0136,-0.0116,-0.0138,-0.0107,-0.0062, 0.0068,-0.4477
17-Jan-2019 10:32:06.194,-0.0117,-0.0039,-0.9852,-0.0050, 0.0044, 0.0143,-0.0105,-0.0138,-0.0118,-0.0062, 0.0068,-0.4477
17-Jan-2019 10:32:06.234,-0.0088,-0.0040,-0.9854,-0.0037, 0.0024, 0.0146,-0.0094,-0.0128,-0.0118,-0.0062, 0.0068,-0.4477
17-Jan-2019 10:32:06.274,-0.0090,-0.0049,-0.9842,-0.0030, 0.0022, 0.0146,-0.0105,-0.0149,-0.0118,-0.0063, 0.0068,-0.4477
17-Jan-2019 10:32:06.314,-0.0097,-0.0072,-0.9857,-0.0028, 0.0004, 0.0153,-0.0105,-0.0117,-0.0118,-0.0063, 0.0068,-0.4477
17-Jan-2019 10:32:06.355,-0.0093,-0.0045,-0.9865,-0.0025, 0.0022, 0.0147,-0.0105,-0.0128,-0.0107,-0.0062, 0.0068,-0.4477
17-Jan-2019 10:32:06.393,-0.0111,-0.0031,-0.9868,-0.0049, 0.0035, 0.0137,-0.0126,-0.0128,-0.0129,-0.0062, 0.0068,-0.4477
17-Jan-2019 10:32:06.432,-0.0114,-0.0041,-0.9852,-0.0042, 0.0029, 0.0124,-0.0105,-0.0117,-0.0118,-0.0062, 0.0068,-0.4477
17-Jan-2019 10:32:06.472,-0.0079,-0.0059,-0.9881,-0.0020, 0.0018, 0.0140,-0.0084,-0.0149,-0.0118,-0.0062, 0.0068,-0.4477
17-Jan-2019 10:32:06.513,-0.0107,-0.0074,-0.9885,-0.0026, 0.0007, 0.0138,-0.0094,-0.0149,-0.0129,-0.0063, 0.0068,-0.4477
17-Jan-2019 10:32:06.552,-0.0085,-0.0043,-0.9882,-0.0042, 0.0015, 0.0113,-0.0105,-0.0106,-0.0139,-0.0062, 0.0068,-0.4478
17-Jan-2019 10:32:06.591,-0.0097,-0.0019,-0.9875,-0.0035, 0.0047, 0.0122,-0.0094,-0.0149,-0.0129,-0.0063, 0.0068,-0.4478
17-Jan-2019 10:32:06.632,-0.0087,-0.0036,-0.9874,-0.0028, 0.0041, 0.0134,-0.0105,-0.0128,-0.0118,-0.0062, 0.0068,-0.4478
17-Jan-2019 10:32:06.671,-0.0076,-0.0018,-0.9867,-0.0050, 0.0044, 0.0142,-0.0116,-0.0117,-0.0139,-0.0062, 0.0068,-0.4478
17-Jan-2019 10:32:06.711,-0.0089,-0.0038,-0.9870, 0.0010, 0.0030, 0.0125,-0.0105,-0.0128,-0.0107,-0.0062, 0.0068,-0.4478
17-Jan-2019 10:32:06.751,-0.0107,-0.0057,-0.9881,-0.0048, 0.0003, 0.0140,-0.0105,-0.0128,-0.0129,-0.0062, 0.0067,-0.4478
17-Jan-2019 10:32:06.791,-0.0091,-0.0041,-0.9894,-0.0033, 0.0027, 0.0111,-0.0105,-0.0106,-0.0118,-0.0062, 0.0067,-0.4478
17-Jan-2019 10:32:06.830,-0.0099,-0.0011,-0.9871,-0.0034, 0.0047, 0.0125,-0.0115,-0.0149,-0.0129,-0.0062, 0.0067,-0.4478
17-Jan-2019 10:32:06.870,-0.0097, 0.0011,-0.9849,-0.0042, 0.0043, 0.0145,-0.0126,-0.0181,-0.0107,-0.0062, 0.0067,-0.4478
17-Jan-2019 10:32:06.910,-0.0117,-0.0038,-0.9865,-0.0029, 0.0063, 0.0133,-0.0095,-0.0064,-0.0118,-0.0062, 0.0067,-0.4477
17-Jan-2019 10:32:06.950,-0.0081,-0.0076,-0.9885,-0.0063, 0.0007, 0.0139,-0.0105,-0.0128,-0.0097,-0.0063, 0.0066,-0.4477
17-Jan-2019 10:32:06.989,-0.0068,-0.0103,-0.9865, 0.0018,-0.0054, 0.0122,-0.0115,-0.0192,-0.0118,-0.0063, 0.0066,-0.4476
17-Jan-2019 10:32:07.029,-0.0089,-0.0096,-0.9852,-0.0022,-0.0034, 0.0114,-0.0084,-0.0117,-0.0128,-0.0063, 0.0066,-0.4477
17-Jan-2019 10:32:07.069,-0.0086,-0.0051,-0.9882,-0.0027, 0.0011, 0.0156,-0.0095,-0.0096,-0.0118,-0.0063, 0.0066,-0.4477
17-Jan-2019 10:32:07.108,-0.0133, 0.0027,-0.9854,-0.0049, 0.0071, 0.0148,-0.0115,-0.0149,-0.0118,-0.0063, 0.0066,-0.4477
17-Jan-2019 10:32:07.148,-0.0107, 0.0024,-0.9830,-0.0069, 0.0097, 0.0129,-0.0094,-0.0160,-0.0118,-0.0063, 0.0066,-0.4477
17-Jan-2019 10:32:07.188,-0.0107,-0.0049,-0.9857,-0.0015, 0.0078, 0.0155,-0.0105,-0.0064,-0.0107,-0.0063, 0.0066,-0.4477
17-Jan-2019 10:32:07.227,-0.0108,-0.0055,-0.9859,-0.0058,-0.0007, 0.0184,-0.0105,-0.0170,-0.0129,-0.0063, 0.0066,-0.4476
17-Jan-2019 10:32:07.267,-0.0073,-0.0068,-0.9861,-0.0010,-0.0025, 0.0092,-0.0094,-0.0149,-0.0118,-0.0063, 0.0066,-0.4476
17-Jan-2019 10:32:07.307,-0.0083,-0.0033,-0.9880,-0.0018, 0.0031, 0.0114,-0.0084,-0.0085,-0.0128,-0.0063, 0.0066,-0.4476
17-Jan-2019 10:32:07.346,-0.0092,-0.0051,-0.9896,-0.0027, 0.0064, 0.0145,-0.0094,-0.0138,-0.0118,-0.0063, 0.0065,-0.4476
17-Jan-2019 10:32:07.386,-0.0114,-0.0063,-0.9842,-0.0043,-0.0029, 0.0133,-0.0126,-0.0170,-0.0118,-0.0063, 0.0065,-0.4475
17-Jan-2019 10:32:07.426,-0.0080,-0.0059,-0.9867,-0.0045, 0.0007, 0.0124,-0.0094,-0.0128,-0.0129,-0.0063, 0.0065,-0.4476
17-Jan-2019 10:32:07.466,-0.0098,-0.0035,-0.9883,-0.0009, 0.0046, 0.0139,-0.0084,-0.0149,-0.0118,-0.0064, 0.0065,-0.4475
17-Jan-2019 10:32:07.506,-0.0114,-0.0014,-0.9848,-0.0065, 0.0029, 0.0149,-0.0126,-0.0138,-0.0129,-0.0064, 0.0065,-0.4475
17-Jan-2019 10:32:07.545,-0.0104,-0.0028,-0.9851,-0.0024, 0.0049, 0.0109,-0.0105,-0.0128,-0.0097,-0.0064, 0.0065,-0.4475
17-Jan-2019 10:32:07.585,-0.0089,-0.0038,-0.9862,-0.0040, 0.0030, 0.0151,-0.0094,-0.0117,-0.0118,-0.0064, 0.0066,-0.4475
17-Jan-2019 10:32:07.625,-0.0094,-0.0057,-0.9843,-0.0027, 0.0021, 0.0133,-0.0126,-0.0149,-0.0118,-0.0064, 0.0065,-0.4475
17-Jan-2019 10:32:07.665,-0.0094,-0.0071,-0.9868,-0.0019, 0.0003, 0.0131,-0.0094,-0.0149,-0.0129,-0.0064, 0.0065,-0.4475
17-Jan-2019 10:32:07.704,-0.0104,-0.0051,-0.9869,-0.0034, 0.0006, 0.0143,-0.0084,-0.0128,-0.0107,-0.0064, 0.0065,-0.4474
17-Jan-2019 10:32:07.744,-0.0088,-0.0034,-0.9870,-0.0022, 0.0029, 0.0133,-0.0105,-0.0106,-0.0129,-0.0064, 0.0065,-0.4474
17-Jan-2019 10:32:07.784,-0.0100,-0.0033,-0.9847,-0.0034, 0.0019, 0.0136,-0.0105,-0.0149,-0.0118,-0.0064, 0.0065,-0.4474
17-Jan-2019 10:32:07.824,-0.0096,-0.0049,-0.9854,-0.0041, 0.0026, 0.0169,-0.0126,-0.0128,-0.0118,-0.0064, 0.0065,-0.4474
17-Jan-2019 10:32:07.863,-0.0109,-0.0038,-0.9837,-0.0036, 0.0027, 0.0141,-0.0105,-0.0128,-0.0129,-0.0064, 0.0065,-0.4474
17-Jan-2019 10:32:07.903,-0.0092,-0.0048,-0.9867,-0.0032, 0.0008, 0.0148,-0.0105,-0.0160,-0.0097,-0.0064, 0.0065,-0.4474
17-Jan-2019 10:32:07.943,-0.0107,-0.0056,-0.9864,-0.0026, 0.0019, 0.0139,-0.0115,-0.0149,-0.0107,-0.0064, 0.0065,-0.4474
17-Jan-2019 10:32:07.982,-0.0101,-0.0043,-0.9862,-0.0029, 0.0013, 0.0135,-0.0094,-0.0106,-0.0118,-0.0063, 0.0065,-0.4474
17-Jan-2019 10:32:08.022,-0.0109,-0.0013,-0.9858,-0.0038, 0.0055, 0.0114,-0.0105,-0.0149,-0.0129,-0.0063, 0.0065,-0.4474
17-Jan-2019 10:32:08.061,-0.0102,-0.0031,-0.9898,-0.0031, 0.0047, 0.0126,-0.0105,-0.0106,-0.0118,-0.0063, 0.0065,-0.4473
17-Jan-2019 10:32:08.101,-0.0085,-0.0037,-0.9854,-0.0036, 0.0012, 0.0141,-0.0115,-0.0170,-0.0118,-0.0063, 0.0065,-0.4473
17-Jan-2019 10:32:08.141,-0.0090,-0.0065,-0.9867,-0.0028, 0.0023, 0.0130,-0.0095,-0.0085,-0.0128,-0.0063, 0.0065,-0.4473
17-Jan-2019 10:32:08.181,-0.0102,-0.0035,-0.9858,-0.0038, 0.0006, 0.0153,-0.0115,-0.0170,-0.0129,-0.0063, 0.0065,-0.4473
17-Jan-2019 10:32:08.220,-0.0088,-0.0060,-0.9872,-0.0023, 0.0022, 0.0149,-0.0105,-0.0106,-0.0129,-0.0063, 0.0065,-0.4473
17-Jan-2019 10:32:08.261,-0.0081,-0.0040,-0.9861,-0.0023, 0.0012, 0.0145,-0.0115,-0.0149,-0.0118,-0.0063, 0.0065,-0.4473
17-Jan-2019 10:32:08.300,-0.0113,-0.0044,-0.9861,-0.0035, 0.0036, 0.0131,-0.0084,-0.0085,-0.0128,-0.0063, 0.0065,-0.4473
17-Jan-2019 10:32:08.342,-0.0093,-0.0012,-0.9858,-0.0048, 0.0028, 0.0147,-0.0115,-0.0192,-0.0129,-0.0063, 0.0064,-0.4473
17-Jan-2019 10:32:08.379,-0.0100,-0.0054,-0.9855,-0.0025, 0.0035, 0.0138,-0.0105,-0.0138,-0.0129,-0.0063, 0.0064,-0.4473
17-Jan-2019 10:32:08.419,-0.0098,-0.0048,-0.9868,-0.0033, 0.0016, 0.0151,-0.0105,-0.0138,-0.0129,-0.0063, 0.0064,-0.4473
17-Jan-2019 10:32:08.459,-0.0099,-0.0049,-0.9851,-0.0033, 0.0013, 0.0105,-0.0084,-0.0117,-0.0118,-0.0063, 0.0064,-0.4473
17-Jan-2019 10:32:08.499,-0.0094,-0.0047,-0.9869,-0.0028, 0.0033, 0.0156,-0.0094,-0.0138,-0.0129,-0.0063, 0.0064,-0.4473
17-Jan-2019 10:32:08.539,-0.0099,-0.0059,-0.9838,-0.0026, 0.0021, 0.0151,-0.0105,-0.0117,-0.0118,-0.0063, 0.0064,-0.4473
17-Jan-2019 10:32:08.578,-0.0105,-0.0053,-0.9841,-0.0040, 0.0014, 0.0167,-0.0094,-0.0149,-0.0118,-0.0063, 0.0064,-0.4473
17-Jan-2019 10:32:08.618,-0.0097,-0.0046,-0.9890,-0.0035, 0.0024, 0.0134,-0.0126,-0.0170,-0.0118,-0.0064, 0.0063,-0.4473
17-Jan-2019 10:32:08.658,-0.0082,-0.0037,-0.9898,-0.0000, 0.0019, 0.0125,-0.0094,-0.0106,-0.0107,-0.0064, 0.0063,-0.4473
17-Jan-2019 10:32:08.698,-0.0104,-0.0054,-0.9881,-0.0030, 0.0025, 0.0103,-0.0105,-0.0138,-0.0118,-0.0064, 0.0063,-0.4473
17-Jan-2019 10:32:08.737,-0.0104,-0.0055,-0.9892,-0.0033, 0.0019, 0.0102,-0.0094,-0.0106,-0.0118,-0.0064, 0.0063,-0.4473
17-Jan-2019 10:32:08.777,-0.0083,-0.0033,-0.9867,-0.0020, 0.0018, 0.0121,-0.0105,-0.0160,-0.0118,-0.0064, 0.0062,-0.4473
17-Jan-2019 10:32:08.817,-0.0093,-0.0051,-0.9847,-0.0009, 0.0027, 0.0144,-0.0094,-0.0117,-0.0118,-0.0064, 0.0062,-0.4473
17-Jan-2019 10:32:08.856,-0.0121,-0.0039,-0.9831,-0.0042, 0.0015, 0.0169,-0.0094,-0.0128,-0.0118,-0.0064, 0.0063,-0.4472
17-Jan-2019 10:32:08.896,-0.0091,-0.0054,-0.9830,-0.0033, 0.0023, 0.0169,-0.0105,-0.0106,-0.0107,-0.0064, 0.0063,-0.4472
17-Jan-2019 10:32:08.936,-0.0083,-0.0048,-0.9831,-0.0010, 0.0021, 0.0155,-0.0105,-0.0149,-0.0118,-0.0063, 0.0062,-0.4472
17-Jan-2019 10:32:08.976,-0.0102,-0.0050,-0.9867,-0.0023, 0.0032, 0.0156,-0.0116,-0.0138,-0.0118,-0.0063, 0.0062,-0.4472
17-Jan-2019 10:32:09.015,-0.0102,-0.0045,-0.9852,-0.0046, 0.0021, 0.0165,-0.0105,-0.0149,-0.0129,-0.0063, 0.0062,-0.4472
17-Jan-2019 10:32:09.055,-0.0090,-0.0038,-0.9876,-0.0018, 0.0034, 0.0134,-0.0116,-0.0138,-0.0118,-0.0063, 0.0062,-0.4472
17-Jan-2019 10:32:09.095,-0.0089,-0.0048,-0.9852,-0.0031, 0.0013, 0.0134,-0.0094,-0.0138,-0.0107,-0.0063, 0.0062,-0.4472
17-Jan-2019 10:32:09.135,-0.0110,-0.0061,-0.9865,-0.0051, 0.0024, 0.0123,-0.0116,-0.0117,-0.0129,-0.0063, 0.0062,-0.4472
17-Jan-2019 10:32:09.175,-0.0079,-0.0050,-0.9863,-0.0028, 0.0020, 0.0134,-0.0094,-0.0138,-0.0118,-0.0063, 0.0061,-0.4471
17-Jan-2019 10:32:09.214,-0.0099,-0.0033,-0.9874,-0.0025, 0.0037, 0.0120,-0.0105,-0.0128,-0.0107,-0.0063, 0.0061,-0.4471
17-Jan-2019 10:32:09.253,-0.0096,-0.0040,-0.9889,-0.0024, 0.0027, 0.0133,-0.0094,-0.0128,-0.0107,-0.0063, 0.0061,-0.4471
17-Jan-2019 10:32:09.294,-0.0097,-0.0049,-0.9849,-0.0040, 0.0009, 0.0124,-0.0105,-0.0149,-0.0129,-0.0064, 0.0061,-0.4471
17-Jan-2019 10:32:09.333,-0.0084,-0.0030,-0.9864,-0.0028, 0.0022, 0.0149,-0.0105,-0.0128,-0.0118,-0.0064, 0.0061,-0.4471
17-Jan-2019 10:32:09.372,-0.0089,-0.0029,-0.9839,-0.0032, 0.0023, 0.0157,-0.0105,-0.0149,-0.0118,-0.0064, 0.0061,-0.4471
17-Jan-2019 10:32:09.412,-0.0094,-0.0043,-0.9867,-0.0032, 0.0011, 0.0141,-0.0084,-0.0117,-0.0128,-0.0064, 0.0061,-0.4471
17-Jan-2019 10:32:09.453,-0.0079,-0.0039,-0.9873,-0.0032, 0.0012, 0.0129,-0.0105,-0.0160,-0.0107,-0.0065, 0.0061,-0.4471
17-Jan-2019 10:32:09.492,-0.0095,-0.0037,-0.9873,-0.0009, 0.0023, 0.0124,-0.0073,-0.0128,-0.0107,-0.0065, 0.0061,-0.4471
17-Jan-2019 10:32:09.531,-0.0099,-0.0030,-0.9858,-0.0045, 0.0033, 0.0141,-0.0115,-0.0149,-0.0129,-0.0065, 0.0060,-0.4471
17-Jan-2019 10:32:09.571,-0.0098,-0.0048,-0.9844,-0.0030, 0.0018, 0.0144,-0.0126,-0.0128,-0.0118,-0.0065, 0.0060,-0.4471
17-Jan-2019 10:32:09.612,-0.0091,-0.0043,-0.9866,-0.0031, 0.0021, 0.0141,-0.0105,-0.0128,-0.0129,-0.0065, 0.0060,-0.4470
17-Jan-2019 10:32:09.651,-0.0099,-0.0036,-0.9876,-0.0033, 0.0028, 0.0115,-0.0116,-0.0138,-0.0118,-0.0065, 0.0060,-0.4471
17-Jan-2019 10:32:09.691,-0.0103,-0.0044,-0.9868,-0.0039, 0.0025, 0.0133,-0.0105,-0.0128,-0.0118,-0.0066, 0.0060,-0.4470
17-Jan-2019 10:32:09.731,-0.0087,-0.0052,-0.9850,-0.0023, 0.0014, 0.0131,-0.0116,-0.0138,-0.0118,-0.0066, 0.0060,-0.4470
17-Jan-2019 10:32:09.770,-0.0110,-0.0046,-0.9856,-0.0035, 0.0029, 0.0138,-0.0105,-0.0138,-0.0129,-0.0066, 0.0060,-0.4470
17-Jan-2019 10:32:09.810,-0.0108,-0.0060,-0.9857,-0.0049, 0.0017, 0.0143,-0.0105,-0.0138,-0.0118,-0.0066, 0.0060,-0.4470
17-Jan-2019 10:32:09.850,-0.0088,-0.0038,-0.9864,-0.0026, 0.0023, 0.0140,-0.0105,-0.0106,-0.0118,-0.0066, 0.0059,-0.4470
17-Jan-2019 10:32:09.889,-0.0090,-0.0032,-0.9856,-0.0028, 0.0012, 0.0138,-0.0115,-0.0149,-0.0118,-0.0066, 0.0059,-0.4470
17-Jan-2019 10:32:09.929,-0.0090,-0.0046,-0.9881,-0.0028, 0.0017, 0.0143,-0.0084,-0.0117,-0.0118,-0.0066, 0.0059,-0.4470
17-Jan-2019 10:32:09.968,-0.0098,-0.0033,-0.9858,-0.0042, 0.0018, 0.0133,-0.0094,-0.0159,-0.0129,-0.0066, 0.0059,-0.4470
17-Jan-2019 10:32:10.008,-0.0087,-0.0040,-0.9877,-0.0023, 0.0030, 0.0138,-0.0105,-0.0117,-0.0129,-0.0066, 0.0059,-0.4470
17-Jan-2019 10:32:10.048,-0.0112,-0.0041,-0.9858,-0.0031, 0.0009, 0.0129,-0.0105,-0.0138,-0.0118,-0.0067, 0.0059,-0.4470
17-Jan-2019 10:32:10.088,-0.0090,-0.0039,-0.9867,-0.0034, 0.0017, 0.0133,-0.0115,-0.0160,-0.0118,-0.0067, 0.0059,-0.4470
17-Jan-2019 10:32:10.128,-0.0095,-0.0030,-0.9867,-0.0027, 0.0029, 0.0128,-0.0084,-0.0149,-0.0118,-0.0067, 0.0059,-0.4470
17-Jan-2019 10:32:10.168,-0.0102,-0.0051,-0.9857,-0.0037, 0.0007, 0.0130,-0.0126,-0.0160,-0.0129,-0.0067, 0.0059,-0.4470
17-Jan-2019 10:32:10.207,-0.0087,-0.0043,-0.9876,-0.0026, 0.0024, 0.0143,-0.0105,-0.0128,-0.0118,-0.0068, 0.0058,-0.4470
17-Jan-2019 10:32:10.247,-0.0104,-0.0045,-0.9864,-0.0032,-0.0000, 0.0117,-0.0105,-0.0149,-0.0118,-0.0068, 0.0058,-0.4470
17-Jan-2019 10:32:10.287,-0.0090,-0.0036,-0.9875,-0.0035, 0.0024, 0.0136,-0.0094,-0.0106,-0.0118,-0.0067, 0.0058,-0.4470
17-Jan-2019 10:32:10.327,-0.0107,-0.0042,-0.9867,-0.0022, 0.0016, 0.0135,-0.0126,-0.0160,-0.0129,-0.0068, 0.0058,-0.4471
17-Jan-2019 10:32:10.366,-0.0088,-0.0032,-0.9867,-0.0041, 0.0008, 0.0151,-0.0105,-0.0138,-0.0118,-0.0068, 0.0058,-0.4471
17-Jan-2019 10:32:10.406,-0.0102,-0.0057,-0.9845,-0.0016, 0.0023, 0.0151,-0.0116,-0.0117,-0.0129,-0.0068, 0.0058,-0.4470
17-Jan-2019 10:32:10.446,-0.0103,-0.0031,-0.9856,-0.0040, 0.0006, 0.0138,-0.0094,-0.0159,-0.0129,-0.0068, 0.0058,-0.4470
17-Jan-2019 10:32:10.485,-0.0093,-0.0031,-0.9879,-0.0029, 0.0023, 0.0124,-0.0094,-0.0117,-0.0107,-0.0068, 0.0057,-0.4470
17-Jan-2019 10:32:10.525,-0.0108,-0.0026,-0.9857,-0.0032, 0.0015, 0.0133,-0.0126,-0.0160,-0.0129,-0.0068, 0.0057,-0.4470
17-Jan-2019 10:32:10.565,-0.0108,-0.0038,-0.9853,-0.0044, 0.0026, 0.0142,-0.0094,-0.0128,-0.0129,-0.0069, 0.0057,-0.4471
17-Jan-2019 10:32:10.605,-0.0118,-0.0038,-0.9883,-0.0027, 0.0017, 0.0119,-0.0115,-0.0149,-0.0129,-0.0069, 0.0057,-0.4471
17-Jan-2019 10:32:10.644, 0.0028,-0.0047,-0.9908, 0.0016, 0.0019, 0.0114,-0.0105,-0.0138,-0.0107,-0.0069, 0.0057,-0.4471
17-Jan-2019 10:32:10.684,-0.0107,-0.0041,-0.9844,-0.0036, 0.0020, 0.0124,-0.0094,-0.0149,-0.0118,-0.0069, 0.0057,-0.4471
17-Jan-2019 10:32:10.723,-0.0105,-0.0026,-0.9880,-0.0041, 0.0024, 0.0128,-0.0105,-0.0138,-0.0118,-0.0070, 0.0057,-0.4471
17-Jan-2019 10:32:10.763,-0.0095,-0.0051,-0.9849,-0.0021, 0.0008, 0.0134,-0.0105,-0.0106,-0.0118,-0.0070, 0.0057,-0.4471
17-Jan-2019 10:32:10.803,-0.0078,-0.0051,-0.9870,-0.0010, 0.0004, 0.0140,-0.0115,-0.0149,-0.0118,-0.0070, 0.0057,-0.4471
17-Jan-2019 10:32:10.843,-0.0130,-0.0037,-0.9858,-0.0049, 0.0030, 0.0138,-0.0095,-0.0064,-0.0107,-0.0070, 0.0057,-0.4471
17-Jan-2019 10:32:10.883,-0.0096,-0.0040,-0.9848,-0.0028,-0.0005, 0.0143,-0.0126,-0.0224,-0.0118,-0.0070, 0.0057,-0.4471
17-Jan-2019 10:32:10.922,-0.0079,-0.0061,-0.9900,-0.0005, 0.0035, 0.0112,-0.0073,-0.0074,-0.0118,-0.0069, 0.0056,-0.4471
17-Jan-2019 10:32:10.962,-0.0115,-0.0019,-0.9857,-0.0053, 0.0000, 0.0121,-0.0126,-0.0213,-0.0118,-0.0070, 0.0056,-0.4471
17-Jan-2019 10:32:11.002,-0.0089,-0.0062,-0.9901,-0.0017, 0.0035, 0.0139,-0.0073,-0.0096,-0.0128,-0.0070, 0.0056,-0.4471
17-Jan-2019 10:32:11.042,-0.0098,-0.0032,-0.9847,-0.0013, 0.0003, 0.0131,-0.0126,-0.0213,-0.0108,-0.0071, 0.0056,-0.4471
17-Jan-2019 10:32:11.081,-0.0098,-0.0034,-0.9887,-0.0020, 0.0033, 0.0137,-0.0084,-0.0096,-0.0128,-0.0071, 0.0056,-0.4471
17-Jan-2019 10:32:11.121,-0.0099,-0.0042,-0.9848,-0.0029, 0.0012, 0.0125,-0.0115,-0.0170,-0.0107,-0.0071, 0.0056,-0.4471
17-Jan-2019 10:32:11.161,-0.0095,-0.0040,-0.9865,-0.0011, 0.0009, 0.0130,-0.0105,-0.0128,-0.0118,-0.0071, 0.0056,-0.4471
17-Jan-2019 10:32:11.200,-0.0111,-0.0025,-0.9839,-0.0035, 0.0032, 0.0153,-0.0105,-0.0138,-0.0129,-0.0071, 0.0056,-0.4471
17-Jan-2019 10:32:11.240,-0.0098,-0.0053,-0.9866,-0.0037, 0.0008, 0.0141,-0.0105,-0.0149,-0.0107,-0.0071, 0.0056,-0.4471
17-Jan-2019 10:32:11.280,-0.0087,-0.0030,-0.9837,-0.0021, 0.0013, 0.0140,-0.0105,-0.0128,-0.0118,-0.0071, 0.0055,-0.4471
17-Jan-2019 10:32:11.320,-0.0094,-0.0039,-0.9860,-0.0025, 0.0013, 0.0156,-0.0116,-0.0128,-0.0129,-0.0071, 0.0055,-0.4471
17-Jan-2019 10:32:11.359,-0.0116,-0.0043,-0.9902,-0.0042, 0.0018, 0.0130,-0.0105,-0.0117,-0.0118,-0.0071, 0.0056,-0.4470
17-Jan-2019 10:32:11.399,-0.0102,-0.0038,-0.9894,-0.0025, 0.0025, 0.0095,-0.0094,-0.0149,-0.0107,-0.0071, 0.0056,-0.4470
17-Jan-2019 10:32:11.439,-0.0107,-0.0035,-0.9876,-0.0036, 0.0023, 0.0136,-0.0115,-0.0138,-0.0129,-0.0071, 0.0055,-0.4471
17-Jan-2019 10:32:11.479,-0.0094,-0.0035,-0.9868,-0.0026, 0.0030, 0.0149,-0.0105,-0.0149,-0.0118,-0.0071, 0.0055,-0.4471
17-Jan-2019 10:32:11.519,-0.0106,-0.0042,-0.9861,-0.0025, 0.0016, 0.0146,-0.0084,-0.0127,-0.0128,-0.0071, 0.0055,-0.4471
17-Jan-2019 10:32:11.558,-0.0093,-0.0028,-0.9837,-0.0025, 0.0016, 0.0132,-0.0116,-0.0128,-0.0118,-0.0071, 0.0055,-0.4471
17-Jan-2019 10:32:11.598,-0.0097,-0.0035,-0.9859,-0.0022, 0.0015, 0.0163,-0.0115,-0.0160,-0.0107,-0.0071, 0.0055,-0.4471
17-Jan-2019 10:32:11.638,-0.0088,-0.0031,-0.9871,-0.0021, 0.0016, 0.0128,-0.0105,-0.0106,-0.0118,-0.0071, 0.0055,-0.4471
17-Jan-2019 10:32:11.677,-0.0105,-0.0042,-0.9867,-0.0022, 0.0016, 0.0113,-0.0116,-0.0128,-0.0118,-0.0071, 0.0055,-0.4471
17-Jan-2019 10:32:11.717,-0.0098,-0.0031,-0.9878,-0.0028, 0.0022, 0.0113,-0.0094,-0.0149,-0.0118,-0.0071, 0.0055,-0.4471
17-Jan-2019 10:32:11.757,-0.0085,-0.0032,-0.9870,-0.0036, 0.0001, 0.0115,-0.0105,-0.0138,-0.0118,-0.0071, 0.0055,-0.4471
17-Jan-2019 10:32:11.797,-0.0116,-0.0038,-0.9867,-0.0024, 0.0030, 0.0128,-0.0105,-0.0128,-0.0118,-0.0071, 0.0054,-0.4471
17-Jan-2019 10:32:11.836,-0.0088,-0.0031,-0.9868,-0.0030, 0.0013, 0.0123,-0.0116,-0.0128,-0.0118,-0.0070, 0.0054,-0.4471
17-Jan-2019 10:32:11.876,-0.0097,-0.0027,-0.9855,-0.0038, 0.0021, 0.0154,-0.0105,-0.0149,-0.0118,-0.0070, 0.0054,-0.4471
17-Jan-2019 10:32:11.916,-0.0111,-0.0043,-0.9847,-0.0017, 0.0039, 0.0155,-0.0105,-0.0128,-0.0139,-0.0070, 0.0054,-0.4471
17-Jan-2019 10:32:11.956,-0.0093,-0.0028,-0.9862,-0.0039,-0.0002, 0.0163,-0.0094,-0.0170,-0.0107,-0.0070, 0.0054,-0.4471
17-Jan-2019 10:32:11.995,-0.0122,-0.0050,-0.9860,-0.0026, 0.0025, 0.0130,-0.0084,-0.0106,-0.0128,-0.0070, 0.0054,-0.4471
17-Jan-2019 10:32:12.034,-0.0111,-0.0033,-0.9881,-0.0025, 0.0015, 0.0108,-0.0094,-0.0149,-0.0118,-0.0070, 0.0054,-0.4471
17-Jan-2019 10:32:12.075,-0.0093,-0.0030,-0.9899,-0.0045, 0.0005, 0.0134,-0.0115,-0.0149,-0.0118,-0.0070, 0.0054,-0.4471
17-Jan-2019 10:32:12.115,-0.0103,-0.0038,-0.9865,-0.0018, 0.0039, 0.0128,-0.0094,-0.0106,-0.0139,-0.0070, 0.0053,-0.4471
17-Jan-2019 10:32:12.154,-0.0114,-0.0016,-0.9874,-0.0029, 0.0013, 0.0108,-0.0126,-0.0170,-0.0107,-0.0070, 0.0053,-0.4471
17-Jan-2019 10:32:12.194,-0.0090,-0.0038,-0.9900,-0.0026, 0.0021, 0.0156,-0.0105,-0.0181,-0.0118,-0.0070, 0.0053,-0.4471
17-Jan-2019 10:32:12.234,-0.0114,-0.0033,-0.9863,-0.0032, 0.0028, 0.0111,-0.0094,-0.0106,-0.0107,-0.0070, 0.0053,-0.4471
17-Jan-2019 10:32:12.274,-0.0106,-0.0025,-0.9877,-0.0029,-0.0002, 0.0126,-0.0105,-0.0149,-0.0129,-0.0070, 0.0053,-0.4471
17-Jan-2019 10:32:12.314,-0.0080,-0.0054,-0.9885,-0.0010, 0.0030, 0.0144,-0.0115,-0.0160,-0.0118,-0.0070, 0.0053,-0.4471
17-Jan-2019 10:32:12.355,-0.0114,-0.0018,-0.9856,-0.0035, 0.0012, 0.0136,-0.0094,-0.0117,-0.0118,-0.0071, 0.0053,-0.4471
17-Jan-2019 10:32:12.392,-0.0086,-0.0036,-0.9871,-0.0026, 0.0012, 0.0138,-0.0115,-0.0149,-0.0118,-0.0071, 0.0053,-0.4471
17-Jan-2019 10:32:12.433,-0.0087,-0.0023,-0.9865,-0.0016, 0.0038, 0.0141,-0.0115,-0.0170,-0.0129,-0.0071, 0.0052,-0.4471
17-Jan-2019 10:32:12.472,-0.0121,-0.0039,-0.9857,-0.0046, 0.0015, 0.0126,-0.0105,-0.0117,-0.0129,-0.0071, 0.0052,-0.4471
17-Jan-2019 10:32:12.513,-0.0090,-0.0035,-0.9886,-0.0032, 0.0023, 0.0108,-0.0105,-0.0160,-0.0118,-0.0071, 0.0052,-0.4471
17-Jan-2019 10:32:12.551,-0.0094,-0.0036,-0.9880,-0.0022, 0.0024, 0.0125,-0.0105,-0.0138,-0.0129,-0.0071, 0.0052,-0.4471
17-Jan-2019 10:32:12.591,-0.0118,-0.0043,-0.9871,-0.0028, 0.0010, 0.0120,-0.0105,-0.0160,-0.0118,-0.0071, 0.0052,-0.4471
17-Jan-2019 10:32:12.631,-0.0098,-0.0034,-0.9867,-0.0051, 0.0015, 0.0138,-0.0105,-0.0149,-0.0118,-0.0072, 0.0052,-0.4471
17-Jan-2019 10:32:12.671,-0.0100,-0.0027,-0.9866,-0.0023, 0.0022, 0.0120,-0.0116,-0.0128,-0.0107,-0.0072, 0.0052,-0.4471
17-Jan-2019 10:32:12.711,-0.0110,-0.0020,-0.9848,-0.0036, 0.0012, 0.0149,-0.0115,-0.0149,-0.0107,-0.0072, 0.0051,-0.4471
17-Jan-2019 10:32:12.751,-0.0082,-0.0022,-0.9867,-0.0008, 0.0019, 0.0149,-0.0105,-0.0170,-0.0129,-0.0072, 0.0051,-0.4471
17-Jan-2019 10:32:12.790,-0.0123,-0.0036,-0.9849,-0.0044, 0.0026, 0.0165,-0.0094,-0.0128,-0.0118,-0.0072, 0.0052,-0.4471
17-Jan-2019 10:32:12.829,-0.0074,-0.0041,-0.9859,-0.0010, 0.0017, 0.0122,-0.0094,-0.0117,-0.0118,-0.0072, 0.0052,-0.4471
17-Jan-2019 10:32:12.870,-0.0074,-0.0035,-0.9867,-0.0008, 0.0024, 0.0134,-0.0105,-0.0128,-0.0118,-0.0072, 0.0052,-0.4471
17-Jan-2019 10:32:12.909,-0.0124,-0.0047,-0.9861,-0.0041, 0.0021, 0.0127,-0.0094,-0.0117,-0.0129,-0.0072, 0.0052,-0.4471
17-Jan-2019 10:32:12.949,-0.0097,-0.0025,-0.9861,-0.0041, 0.0014, 0.0136,-0.0116,-0.0128,-0.0129,-0.0072, 0.0052,-0.4470
17-Jan-2019 10:32:12.988,-0.0082,-0.0036,-0.9876, 0.0003, 0.0019, 0.0134,-0.0105,-0.0138,-0.0118,-0.0072, 0.0052,-0.4470
17-Jan-2019 10:32:13.028,-0.0111,-0.0041,-0.9856,-0.0038, 0.0015, 0.0178,-0.0126,-0.0117,-0.0107,-0.0072, 0.0052,-0.4470
17-Jan-2019 10:32:13.068,-0.0093,-0.0025,-0.9837,-0.0034, 0.0014, 0.0140,-0.0105,-0.0128,-0.0107,-0.0072, 0.0052,-0.4470
17-Jan-2019 10:32:13.108,-0.0101,-0.0032,-0.9898,-0.0028, 0.0032, 0.0124,-0.0094,-0.0128,-0.0118,-0.0072, 0.0052,-0.4469
17-Jan-2019 10:32:13.147,-0.0093,-0.0019,-0.9887,-0.0032, 0.0024, 0.0128,-0.0105,-0.0128,-0.0129,-0.0072, 0.0052,-0.4469
17-Jan-2019 10:32:13.186,-0.0100,-0.0035,-0.9862,-0.0023, 0.0040, 0.0121,-0.0084,-0.0106,-0.0118,-0.0072, 0.0053,-0.4469
17-Jan-2019 10:32:13.226,-0.0114,-0.0035,-0.9892,-0.0035, 0.0016, 0.0125,-0.0105,-0.0138,-0.0107,-0.0072, 0.0052,-0.4469
17-Jan-2019 10:32:13.266,-0.0099,-0.0044,-0.9857,-0.0023, 0.0018, 0.0129,-0.0105,-0.0117,-0.0118,-0.0071, 0.0052,-0.4469
17-Jan-2019 10:32:13.306,-0.0097,-0.0041,-0.9854,-0.0028, 0.0029, 0.0131,-0.0105,-0.0106,-0.0107,-0.0071, 0.0052,-0.4469
17-Jan-2019 10:32:13.345,-0.0117,-0.0026,-0.9878,-0.0033, 0.0041, 0.0143,-0.0105,-0.0128,-0.0118,-0.0071, 0.0052,-0.4469
17-Jan-2019 10:32:13.385,-0.0096,-0.0038,-0.9866,-0.0026, 0.0019, 0.0116,-0.0105,-0.0117,-0.0139,-0.0071, 0.0053,-0.4469
17-Jan-2019 10:32:13.426,-0.0090,-0.0036,-0.9894,-0.0006, 0.0015, 0.0126,-0.0105,-0.0160,-0.0129,-0.0071, 0.0053,-0.4469
17-Jan-2019 10:32:13.465,-0.0100,-0.0027,-0.9861,-0.0038,-0.0001, 0.0125,-0.0105,-0.0128,-0.0118,-0.0072, 0.0053,-0.4468
17-Jan-2019 10:32:13.505,-0.0094,-0.0044,-0.9872,-0.0019, 0.0018, 0.0120,-0.0115,-0.0160,-0.0129,-0.0072, 0.0053,-0.4468
17-Jan-2019 10:32:13.544,-0.0100,-0.0033,-0.9836,-0.0032, 0.0015, 0.0154,-0.0116,-0.0128,-0.0129,-0.0071, 0.0053,-0.4469
17-Jan-2019 10:32:13.585,-0.0096,-0.0052,-0.9841,-0.0022, 0.0010, 0.0147,-0.0105,-0.0160,-0.0107,-0.0072, 0.0053,-0.4468
17-Jan-2019 10:32:13.624,-0.0093,-0.0040,-0.9866,-0.0031, 0.0018, 0.0141,-0.0105,-0.0128,-0.0118,-0.0071, 0.0054,-0.4468
17-Jan-2019 10:32:13.664,-0.0145,-0.0032,-0.9862,-0.0061, 0.0026, 0.0139,-0.0105,-0.0117,-0.0118,-0.0071, 0.0054,-0.4468
17-Jan-2019 10:32:13.703,-0.0108,-0.0039,-0.9882,-0.0057, 0.0021, 0.0126,-0.0073,-0.0117,-0.0107,-0.0072, 0.0054,-0.4468
17-Jan-2019 10:32:13.744,-0.0061,-0.0035,-0.9860, 0.0001, 0.0024, 0.0142,-0.0094,-0.0138,-0.0107,-0.0072, 0.0054,-0.4468
17-Jan-2019 10:32:13.783,-0.0089,-0.0021,-0.9855, 0.0006, 0.0037, 0.0149,-0.0105,-0.0128,-0.0118,-0.0072, 0.0054,-0.4468
17-Jan-2019 10:32:13.823,-0.0118,-0.0059,-0.9871,-0.0043, 0.0033, 0.0127,-0.0105,-0.0128,-0.0107,-0.0072, 0.0054,-0.4468
17-Jan-2019 10:32:13.863,-0.0125,-0.0023,-0.9885,-0.0052, 0.0048, 0.0113,-0.0126,-0.0149,-0.0129,-0.0072, 0.0054,-0.4468
17-Jan-2019 10:32:13.903,-0.0055,-0.0023,-0.9875,-0.0016, 0.0012, 0.0122,-0.0094,-0.0149,-0.0107,-0.0072, 0.0054,-0.4467
17-Jan-2019 10:32:13.942,-0.0106,-0.0040,-0.9867,-0.0000, 0.0036, 0.0115,-0.0105,-0.0170,-0.0139,-0.0072, 0.0054,-0.4467
17-Jan-2019 10:32:13.982,-0.0104,-0.0001,-0.9838,-0.0058, 0.0004, 0.0166,-0.0094,-0.0128,-0.0129,-0.0072, 0.0054,-0.4468
17-Jan-2019 10:32:14.021,-0.0068,-0.0050,-0.9866,-0.0000, 0.0025, 0.0118,-0.0105,-0.0181,-0.0118,-0.0072, 0.0054,-0.4467
17-Jan-2019 10:32:14.061,-0.0119,-0.0010,-0.9852,-0.0056, 0.0036, 0.0137,-0.0094,-0.0138,-0.0107,-0.0072, 0.0054,-0.4468
17-Jan-2019 10:32:14.100,-0.0065,-0.0031,-0.9879,-0.0015, 0.0031, 0.0125,-0.0105,-0.0149,-0.0129,-0.0072, 0.0055,-0.4467
17-Jan-2019 10:32:14.141,-0.0093,-0.0017,-0.9897,-0.0019, 0.0035, 0.0095,-0.0094,-0.0128,-0.0118,-0.0072, 0.0055,-0.4468
17-Jan-2019 10:32:14.181,-0.0092,-0.0040,-0.9895,-0.0032, 0.0027, 0.0099,-0.0105,-0.0149,-0.0129,-0.0072, 0.0055,-0.4468
17-Jan-2019 10:32:14.220,-0.0128,-0.0037,-0.9829,-0.0041, 0.0001, 0.0161,-0.0115,-0.0138,-0.0129,-0.0072, 0.0055,-0.4468
17-Jan-2019 10:32:14.260,-0.0133,-0.0029,-0.9805,-0.0080, 0.0028, 0.0192,-0.0094,-0.0128,-0.0129,-0.0072, 0.0055,-0.4468
17-Jan-2019 10:32:14.300,-0.0091,-0.0048,-0.9810,-0.0020,-0.0002, 0.0186,-0.0116,-0.0128,-0.0118,-0.0072, 0.0055,-0.4467
17-Jan-2019 10:32:14.341,-0.0088,-0.0022,-0.9832,-0.0011, 0.0054, 0.0166,-0.0105,-0.0149,-0.0118,-0.0072, 0.0055,-0.4467
17-Jan-2019 10:32:14.378,-0.0100,-0.0051,-0.9842,-0.0020,-0.0008, 0.0182,-0.0116,-0.0128,-0.0129,-0.0072, 0.0055,-0.4467
17-Jan-2019 10:32:14.419,-0.0124,-0.0018,-0.9851,-0.0038, 0.0034, 0.0149,-0.0116,-0.0128,-0.0107,-0.0073, 0.0055,-0.4467
17-Jan-2019 10:32:14.459,-0.0094,-0.0100,-0.9938, 0.0019,-0.0069, 0.0118,-0.0115,-0.0181,-0.0129,-0.0073, 0.0055,-0.4467
17-Jan-2019 10:32:14.498,-0.0065,-0.0044,-0.9982, 0.0001, 0.0060, 0.0038,-0.0115,-0.0149,-0.0107,-0.0073, 0.0055,-0.4467
17-Jan-2019 10:32:14.537,-0.0088,-0.0141,-0.9922, 0.0010,-0.0048, 0.0093,-0.0084,-0.0149,-0.0107,-0.0073, 0.0055,-0.4467
17-Jan-2019 10:32:14.578,-0.0140,-0.0038,-0.9895,-0.0001, 0.0034, 0.0111,-0.0105,-0.0106,-0.0118,-0.0073, 0.0055,-0.4467
17-Jan-2019 10:32:14.618,-0.0108,-0.0103,-0.9874,-0.0012,-0.0040, 0.0184,-0.0126,-0.0160,-0.0118,-0.0073, 0.0055,-0.4467
17-Jan-2019 10:32:14.657,-0.0117,-0.0018,-0.9835,-0.0019,-0.0003, 0.0190,-0.0094,-0.0117,-0.0107,-0.0073, 0.0055,-0.4467
17-Jan-2019 10:32:14.697,-0.0106,-0.0015,-0.9837,-0.0040, 0.0014, 0.0207,-0.0094,-0.0138,-0.0129,-0.0073, 0.0055,-0.4467
17-Jan-2019 10:32:14.736,-0.0099,-0.0034,-0.9862,-0.0030,-0.0020, 0.0189,-0.0094,-0.0128,-0.0118,-0.0073, 0.0055,-0.4467
17-Jan-2019 10:32:14.776,-0.0102,-0.0008,-0.9885,-0.0050, 0.0001, 0.0150,-0.0116,-0.0128,-0.0107,-0.0072, 0.0055,-0.4467
17-Jan-2019 10:32:14.816,-0.0062, 0.0017,-0.9905,-0.0020, 0.0036, 0.0116,-0.0094,-0.0138,-0.0107,-0.0073, 0.0055,-0.4466
17-Jan-2019 10:32:14.856,-0.0093,-0.0049,-0.9896,-0.0014, 0.0015, 0.0115,-0.0105,-0.0128,-0.0118,-0.0072, 0.0055,-0.4466
17-Jan-2019 10:32:14.896,-0.0097,-0.0029,-0.9905,-0.0037, 0.0032, 0.0107,-0.0094,-0.0160,-0.0107,-0.0072, 0.0055,-0.4466
17-Jan-2019 10:32:14.935,-0.0087,-0.0033,-0.9919,-0.0000, 0.0050, 0.0075,-0.0105,-0.0149,-0.0107,-0.0072, 0.0055,-0.4466
17-Jan-2019 10:32:14.974,-0.0122,-0.0032,-0.9904,-0.0031, 0.0053, 0.0093,-0.0094,-0.0128,-0.0107,-0.0072, 0.0055,-0.4466
17-Jan-2019 10:32:15.014,-0.0099,-0.0062,-0.9837,-0.0036, 0.0016, 0.0131,-0.0126,-0.0149,-0.0118,-0.0072, 0.0055,-0.4466
17-Jan-2019 10:32:15.054,-0.0080,-0.0034,-0.9840,-0.0000, 0.0016, 0.0174,-0.0116,-0.0117,-0.0107,-0.0072, 0.0055,-0.4466
17-Jan-2019 10:32:15.093,-0.0104,-0.0026,-0.9846,-0.0022, 0.0031, 0.0128,-0.0105,-0.0128,-0.0118,-0.0072, 0.0055,-0.4466
17-Jan-2019 10:32:15.133,-0.0117,-0.0045,-0.9856,-0.0019, 0.0011, 0.0132,-0.0094,-0.0149,-0.0118,-0.0072, 0.0055,-0.4466
17-Jan-2019 10:32:15.174,-0.0099,-0.0020,-0.9871,-0.0015, 0.0031, 0.0115,-0.0105,-0.0160,-0.0118,-0.0072, 0.0055,-0.4466
17-Jan-2019 10:32:15.213,-0.0100,-0.0034,-0.9881,-0.0013, 0.0029, 0.0125,-0.0105,-0.0138,-0.0107,-0.0072, 0.0054,-0.4466
17-Jan-2019 10:32:15.252,-0.0110,-0.0041,-0.9859,-0.0039, 0.0035, 0.0099,-0.0094,-0.0138,-0.0107,-0.0072, 0.0054,-0.4466
17-Jan-2019 10:32:15.292,-0.0096,-0.0046,-0.9852,-0.0013, 0.0016, 0.0130,-0.0115,-0.0160,-0.0129,-0.0072, 0.0054,-0.4466
17-Jan-2019 10:32:15.333,-0.0098, 0.0006,-0.9860,-0.0029, 0.0047, 0.0117,-0.0073,-0.0138,-0.0096,-0.0072, 0.0054,-0.4466
17-Jan-2019 10:32:15.372,-0.0094,-0.0043,-0.9846,-0.0014, 0.0025, 0.0117,-0.0116,-0.0117,-0.0129,-0.0073, 0.0054,-0.4466
17-Jan-2019 10:32:15.411,-0.0116,-0.0040,-0.9856,-0.0033, 0.0021, 0.0136,-0.0094,-0.0128,-0.0118,-0.0072, 0.0054,-0.4466
17-Jan-2019 10:32:15.451,-0.0105,-0.0036,-0.9847,-0.0027, 0.0021, 0.0134,-0.0094,-0.0117,-0.0118,-0.0072, 0.0054,-0.4466
17-Jan-2019 10:32:15.491,-0.0101,-0.0032,-0.9891,-0.0036, 0.0020, 0.0136,-0.0105,-0.0160,-0.0107,-0.0072, 0.0054,-0.4466
17-Jan-2019 10:32:15.532,-0.0104,-0.0025,-0.9864,-0.0021, 0.0044, 0.0137,-0.0105,-0.0149,-0.0129,-0.0072, 0.0054,-0.4466
17-Jan-2019 10:32:15.570,-0.0114,-0.0035,-0.9879,-0.0013, 0.0023, 0.0111,-0.0105,-0.0117,-0.0118,-0.0072, 0.0054,-0.4466
17-Jan-2019 10:32:15.610,-0.0101,-0.0030,-0.9854,-0.0027, 0.0021, 0.0122,-0.0116,-0.0128,-0.0118,-0.0072, 0.0054,-0.4466
17-Jan-2019 10:32:15.649,-0.0101,-0.0035,-0.9859,-0.0028, 0.0012, 0.0140,-0.0105,-0.0117,-0.0118,-0.0073, 0.0054,-0.4465
17-Jan-2019 10:32:15.689,-0.0112,-0.0003,-0.9870,-0.0023, 0.0037, 0.0123,-0.0094,-0.0170,-0.0118,-0.0073, 0.0054,-0.4465
17-Jan-2019 10:32:15.729,-0.0108,-0.0037,-0.9862,-0.0022, 0.0031, 0.0138,-0.0094,-0.0138,-0.0129,-0.0072, 0.0054,-0.4465
17-Jan-2019 10:32:15.769,-0.0104,-0.0032,-0.9859,-0.0014, 0.0026, 0.0161,-0.0105,-0.0128,-0.0129,-0.0073, 0.0054,-0.4465
17-Jan-2019 10:32:15.809,-0.0071,-0.0018,-0.9849,-0.0009, 0.0030, 0.0158,-0.0105,-0.0149,-0.0129,-0.0073, 0.0054,-0.4466
17-Jan-2019 10:32:15.849,-0.0082,-0.0016,-0.9865, 0.0000, 0.0039, 0.0145,-0.0094,-0.0106,-0.0107,-0.0072, 0.0055,-0.4465
17-Jan-2019 10:32:15.889,-0.0214,-0.0052,-0.9865,-0.0101, 0.0001, 0.0177,-0.0094,-0.0170,-0.0107,-0.0073, 0.0054,-0.4465
17-Jan-2019 10:32:15.929,-0.0079,-0.0025,-0.9893,-0.0058, 0.0007, 0.0125,-0.0094,-0.0117,-0.0139,-0.0073, 0.0055,-0.4466
17-Jan-2019 10:32:15.968,-0.0060,-0.0040,-0.9867, 0.0007, 0.0041, 0.0116,-0.0115,-0.0138,-0.0129,-0.0073, 0.0054,-0.4466
17-Jan-2019 10:32:16.007,-0.0138,-0.0047,-0.9861,-0.0053, 0.0009, 0.0163,-0.0105,-0.0138,-0.0118,-0.0073, 0.0054,-0.4466
17-Jan-2019 10:32:16.048,-0.0092,-0.0026,-0.9857,-0.0020, 0.0025, 0.0140,-0.0094,-0.0128,-0.0129,-0.0073, 0.0054,-0.4466
17-Jan-2019 10:32:16.088,-0.0087,-0.0024,-0.9885,-0.0020, 0.0021, 0.0133,-0.0105,-0.0138,-0.0107,-0.0072, 0.0054,-0.4466
17-Jan-2019 10:32:16.127,-0.0096,-0.0039,-0.9885,-0.0028, 0.0020, 0.0067,-0.0084,-0.0128,-0.0107,-0.0072, 0.0054,-0.4466
17-Jan-2019 10:32:16.167,-0.0159,-0.0007,-0.9859,-0.0057, 0.0041, 0.0141,-0.0105,-0.0138,-0.0107,-0.0072, 0.0054,-0.4465
17-Jan-2019 10:32:16.207,-0.0078,-0.0067,-0.9880, 0.0001, 0.0024, 0.0100,-0.0105,-0.0117,-0.0107,-0.0072, 0.0054,-0.4465
17-Jan-2019 10:32:16.246,-0.0130,-0.0032,-0.9874,-0.0034, 0.0035, 0.0115,-0.0116,-0.0128,-0.0107,-0.0072, 0.0054,-0.4465
17-Jan-2019 10:32:16.286,-0.0099,-0.0024,-0.9870,-0.0033, 0.0015, 0.0131,-0.0105,-0.0138,-0.0107,-0.0072, 0.0054,-0.4465
17-Jan-2019 10:32:16.326,-0.0082,-0.0020,-0.9882,-0.0003, 0.0026, 0.0111,-0.0105,-0.0160,-0.0107,-0.0072, 0.0054,-0.4465
17-Jan-2019 10:32:16.365,-0.0115,-0.0035,-0.9828,-0.0069, 0.0018, 0.0157,-0.0105,-0.0117,-0.0118,-0.0072, 0.0054,-0.4465
17-Jan-2019 10:32:16.405,-0.0099,-0.0029,-0.9854,-0.0035, 0.0024, 0.0130,-0.0084,-0.0138,-0.0107,-0.0071, 0.0054,-0.4465
17-Jan-2019 10:32:16.445,-0.0108,-0.0023,-0.9827,-0.0032, 0.0033, 0.0175,-0.0105,-0.0117,-0.0129,-0.0071, 0.0054,-0.4465
17-Jan-2019 10:32:16.485,-0.0095,-0.0049,-0.9847,-0.0010, 0.0003, 0.0142,-0.0105,-0.0160,-0.0107,-0.0071, 0.0054,-0.4465
17-Jan-2019 10:32:16.525,-0.0106,-0.0028,-0.9844,-0.0046, 0.0032, 0.0134,-0.0115,-0.0160,-0.0129,-0.0071, 0.0054,-0.4465
17-Jan-2019 10:32:16.564,-0.0113,-0.0024,-0.9860,-0.0033, 0.0022, 0.0121,-0.0105,-0.0128,-0.0118,-0.0071, 0.0054,-0.4465
17-Jan-2019 10:32:16.604,-0.0092,-0.0033,-0.9866,-0.0025, 0.0013, 0.0116,-0.0116,-0.0117,-0.0129,-0.0071, 0.0055,-0.4465
17-Jan-2019 10:32:16.644,-0.0106,-0.0035,-0.9893,-0.0037, 0.0017, 0.0130,-0.0115,-0.0149,-0.0118,-0.0071, 0.0054,-0.4465
17-Jan-2019 10:32:16.683,-0.0097,-0.0014,-0.9891,-0.0034, 0.0026, 0.0127,-0.0116,-0.0138,-0.0107,-0.0072, 0.0055,-0.4465
17-Jan-2019 10:32:16.723,-0.0100,-0.0032,-0.9875,-0.0020, 0.0034, 0.0144,-0.0094,-0.0117,-0.0129,-0.0071, 0.0055,-0.4465
17-Jan-2019 10:32:16.763,-0.0116,-0.0027,-0.9861,-0.0031, 0.0024, 0.0134,-0.0115,-0.0149,-0.0118,-0.0072, 0.0055,-0.4465
17-Jan-2019 10:32:16.803,-0.0102,-0.0023,-0.9833,-0.0026, 0.0009, 0.0148,-0.0126,-0.0160,-0.0107,-0.0072, 0.0055,-0.4465
17-Jan-2019 10:32:16.842,-0.0078,-0.0027,-0.9859,-0.0023, 0.0029, 0.0149,-0.0116,-0.0128,-0.0097,-0.0072, 0.0055,-0.4465
17-Jan-2019 10:32:16.882,-0.0107,-0.0029,-0.9830,-0.0018, 0.0034, 0.0143,-0.0105,-0.0128,-0.0118,-0.0071, 0.0055,-0.4465
17-Jan-2019 10:32:16.922,-0.0098,-0.0028,-0.9841,-0.0044, 0.0038, 0.0163,-0.0094,-0.0128,-0.0129,-0.0071, 0.0055,-0.4465
17-Jan-2019 10:32:16.962,-0.0109,-0.0039,-0.9850,-0.0023, 0.0013, 0.0133,-0.0105,-0.0138,-0.0118,-0.0072, 0.0055,-0.4465
17-Jan-2019 10:32:17.001,-0.0099,-0.0042,-0.9886,-0.0042, 0.0014, 0.0157,-0.0116,-0.0117,-0.0129,-0.0071, 0.0055,-0.4465
17-Jan-2019 10:32:17.041,-0.0109,-0.0018,-0.9850,-0.0026, 0.0026, 0.0144,-0.0084,-0.0106,-0.0139,-0.0071, 0.0055,-0.4465
17-Jan-2019 10:32:17.080,-0.0098,-0.0040,-0.9857,-0.0030, 0.0022, 0.0158,-0.0105,-0.0149,-0.0129,-0.0071, 0.0056,-0.4465
17-Jan-2019 10:32:17.120,-0.0094,-0.0039,-0.9882,-0.0022, 0.0021, 0.0128,-0.0084,-0.0128,-0.0118,-0.0071, 0.0056,-0.4465
17-Jan-2019 10:32:17.160,-0.0100,-0.0046,-0.9853,-0.0023, 0.0032, 0.0111,-0.0105,-0.0106,-0.0118,-0.0071, 0.0056,-0.4465
17-Jan-2019 10:32:17.199,-0.0104,-0.0038,-0.9863,-0.0035, 0.0033, 0.0175,-0.0084,-0.0127,-0.0128,-0.0071, 0.0056,-0.4466
17-Jan-2019 10:32:17.240,-0.0102,-0.0021,-0.9874,-0.0016, 0.0034, 0.0125,-0.0116,-0.0128,-0.0107,-0.0071, 0.0057,-0.4466
17-Jan-2019 10:32:17.279,-0.0106,-0.0021,-0.9836,-0.0030, 0.0014, 0.0168,-0.0084,-0.0106,-0.0128,-0.0071, 0.0057,-0.4466
17-Jan-2019 10:32:17.319,-0.0084,-0.0027,-0.9857,-0.0018, 0.0031, 0.0155,-0.0105,-0.0128,-0.0129,-0.0072, 0.0058,-0.4466
17-Jan-2019 10:32:17.358,-0.0095,-0.0021,-0.9816,-0.0039, 0.0022, 0.0181,-0.0105,-0.0138,-0.0129,-0.0072, 0.0058,-0.4466
17-Jan-2019 10:32:17.398,-0.0101,-0.0033,-0.9836,-0.0025, 0.0029, 0.0197,-0.0094,-0.0149,-0.0118,-0.0072, 0.0058,-0.4466
17-Jan-2019 10:32:17.438,-0.0113,-0.0016,-0.9870,-0.0052, 0.0029, 0.0134,-0.0094,-0.0117,-0.0118,-0.0072, 0.0058,-0.4467
17-Jan-2019 10:32:17.478,-0.0097,-0.0053,-0.9940,-0.0028, 0.0004, 0.0099,-0.0116,-0.0138,-0.0118,-0.0072, 0.0058,-0.4467
17-Jan-2019 10:32:17.518,-0.0118,-0.0028,-0.9879,-0.0048, 0.0013, 0.0071,-0.0105,-0.0117,-0.0097,-0.0072, 0.0058,-0.4467
17-Jan-2019 10:32:17.558,-0.0103,-0.0011,-0.9859,-0.0034, 0.0047, 0.0135,-0.0105,-0.0117,-0.0118,-0.0072, 0.0058,-0.4466
17-Jan-2019 10:32:17.597,-0.0079,-0.0037,-0.9862,-0.0004, 0.0034, 0.0165,-0.0105,-0.0096,-0.0118,-0.0072, 0.0059,-0.4466
17-Jan-2019 10:32:17.637,-0.0111,-0.0025,-0.9831,-0.0038, 0.0034, 0.0172,-0.0094,-0.0138,-0.0129,-0.0072, 0.0059,-0.4467
17-Jan-2019 10:32:17.677,-0.0076,-0.0032,-0.9833,-0.0016, 0.0030, 0.0179,-0.0094,-0.0160,-0.0118,-0.0072, 0.0059,-0.4467
17-Jan-2019 10:32:17.716,-0.0117,-0.0044,-0.9823,-0.0037,-0.0005, 0.0182,-0.0105,-0.0149,-0.0107,-0.0072, 0.0059,-0.4467
17-Jan-2019 10:32:17.756,-0.0088,-0.0037,-0.9888,-0.0021, 0.0010, 0.0143,-0.0094,-0.0181,-0.0118,-0.0072, 0.0060,-0.4467
17-Jan-2019 10:32:17.796,-0.0101,-0.0001,-0.9910,-0.0037, 0.0032, 0.0114,-0.0094,-0.0138,-0.0118,-0.0072, 0.0060,-0.4467
17-Jan-2019 10:32:17.836,-0.0095,-0.0033,-0.9865,-0.0035, 0.0036, 0.0105,-0.0105,-0.0149,-0.0107,-0.0072, 0.0060,-0.4467
17-Jan-2019 10:32:17.875,-0.0098,-0.0033,-0.9898,-0.0027, 0.0009, 0.0131,-0.0105,-0.0138,-0.0129,-0.0073, 0.0060,-0.4467
17-Jan-2019 10:32:17.915,-0.0115,-0.0031,-0.9902,-0.0038, 0.0040, 0.0115,-0.0116,-0.0117,-0.0129,-0.0073, 0.0060,-0.4467
17-Jan-2019 10:32:17.955,-0.0090,-0.0046,-0.9848,-0.0022, 0.0009, 0.0132,-0.0094,-0.0128,-0.0129,-0.0073, 0.0060,-0.4468
17-Jan-2019 10:32:17.994,-0.0094,-0.0033,-0.9861,-0.0018, 0.0041, 0.0156,-0.0115,-0.0160,-0.0129,-0.0073, 0.0060,-0.4468
17-Jan-2019 10:32:18.033,-0.0113,-0.0043,-0.9842,-0.0043, 0.0032, 0.0130,-0.0094,-0.0106,-0.0118,-0.0072, 0.0061,-0.4468
17-Jan-2019 10:32:18.073,-0.0083,-0.0032,-0.9867, 0.0001, 0.0045, 0.0156,-0.0115,-0.0149,-0.0118,-0.0072, 0.0060,-0.4468
17-Jan-2019 10:32:18.113,-0.0117,-0.0038,-0.9846,-0.0032, 0.0029, 0.0141,-0.0094,-0.0117,-0.0129,-0.0072, 0.0061,-0.4468
17-Jan-2019 10:32:18.153,-0.0085,-0.0022,-0.9858,-0.0017, 0.0045, 0.0141,-0.0084,-0.0128,-0.0118,-0.0072, 0.0061,-0.4468
17-Jan-2019 10:32:18.192,-0.0096,-0.0064,-0.9843,-0.0024,-0.0001, 0.0135,-0.0105,-0.0138,-0.0118,-0.0072, 0.0061,-0.4468
17-Jan-2019 10:32:18.232,-0.0090,-0.0027,-0.9883,-0.0013, 0.0033, 0.0132,-0.0126,-0.0149,-0.0118,-0.0072, 0.0061,-0.4468
17-Jan-2019 10:32:18.272,-0.0106,-0.0035,-0.9843,-0.0047, 0.0019, 0.0131,-0.0094,-0.0128,-0.0107,-0.0072, 0.0061,-0.4468
17-Jan-2019 10:32:18.313,-0.0080,-0.0025,-0.9871,-0.0010, 0.0028, 0.0105,-0.0105,-0.0138,-0.0118,-0.0072, 0.0061,-0.4468
17-Jan-2019 10:32:18.356,-0.0107,-0.0026,-0.9873,-0.0053, 0.0039, 0.0125,-0.0105,-0.0138,-0.0118,-0.0072, 0.0061,-0.4468
17-Jan-2019 10:32:18.391,-0.0090,-0.0034,-0.9853,-0.0025, 0.0029, 0.0145,-0.0105,-0.0149,-0.0129,-0.0072, 0.0061,-0.4468
17-Jan-2019 10:32:18.432,-0.0112,-0.0044,-0.9862,-0.0036, 0.0014, 0.0149,-0.0094,-0.0128,-0.0129,-0.0071, 0.0061,-0.4468
17-Jan-2019 10:32:18.471,-0.0079,-0.0027,-0.9884,-0.0028, 0.0023, 0.0136,-0.0094,-0.0128,-0.0118,-0.0071, 0.0061,-0.4468
17-Jan-2019 10:32:18.512,-0.0114,-0.0042,-0.9843,-0.0031, 0.0023, 0.0143,-0.0073,-0.0138,-0.0128,-0.0071, 0.0061,-0.4468
17-Jan-2019 10:32:18.551,-0.0094,-0.0035,-0.9860,-0.0023, 0.0029, 0.0176,-0.0105,-0.0138,-0.0118,-0.0071, 0.0061,-0.4468
17-Jan-2019 10:32:18.592,-0.0098,-0.0037,-0.9843,-0.0023, 0.0023, 0.0124,-0.0094,-0.0149,-0.0129,-0.0071, 0.0062,-0.4468
17-Jan-2019 10:32:18.630,-0.0087,-0.0034,-0.9934,-0.0025, 0.0039, 0.0110,-0.0105,-0.0138,-0.0107,-0.0071, 0.0062,-0.4468
17-Jan-2019 10:32:18.670,-0.0114,-0.0018,-1.0031,-0.0037, 0.0034,-0.0023,-0.0084,-0.0149,-0.0118,-0.0071, 0.0062,-0.4468
17-Jan-2019 10:32:18.710,-0.0106,-0.0046,-1.0181,-0.0036, 0.0027,-0.0122,-0.0105,-0.0149,-0.0118,-0.0071, 0.0062,-0.4468
17-Jan-2019 10:32:18.750,-0.0099,-0.0039,-1.0235,-0.0019, 0.0002,-0.0221,-0.0105,-0.0138,-0.0129,-0.0071, 0.0062,-0.4468
17-Jan-2019 10:32:18.788,-0.0108,-0.0023,-1.0282,-0.0038, 0.0044,-0.0280,-0.0105,-0.0128,-0.0107,-0.0071, 0.0062,-0.4468
17-Jan-2019 10:32:18.828,-0.0079,-0.0042,-1.0277,-0.0027, 0.0011,-0.0280,-0.0094,-0.0128,-0.0107,-0.0071, 0.0062,-0.4469
17-Jan-2019 10:32:18.868,-0.0101,-0.0026,-1.0237,-0.0037, 0.0020,-0.0300,-0.0084,-0.0128,-0.0118,-0.0071, 0.0062,-0.4469
17-Jan-2019 10:32:18.907,-0.0089,-0.0042,-1.0298,-0.0033, 0.0024,-0.0260,-0.0115,-0.0170,-0.0118,-0.0071, 0.0062,-0.4469
17-Jan-2019 10:32:18.947,-0.0112,-0.0045,-1.0291,-0.0040, 0.0026,-0.0300,-0.0094,-0.0138,-0.0118,-0.0071, 0.0062,-0.4469
17-Jan-2019 10:32:18.987,-0.0094,-0.0034,-1.0281,-0.0021, 0.0023,-0.0267,-0.0105,-0.0149,-0.0129,-0.0071, 0.0062,-0.4469
17-Jan-2019 10:32:19.027,-0.0123,-0.0040,-1.0241,-0.0053, 0.0021,-0.0246,-0.0105,-0.0160,-0.0118,-0.0072, 0.0062,-0.4469
17-Jan-2019 10:32:19.066,-0.0102,-0.0021,-1.0280,-0.0026, 0.0031,-0.0286,-0.0094,-0.0149,-0.0129,-0.0071, 0.0062,-0.4469
17-Jan-2019 10:32:19.106,-0.0110,-0.0037,-1.0285,-0.0030, 0.0033,-0.0289,-0.0116,-0.0117,-0.0118,-0.0071, 0.0062,-0.4469
17-Jan-2019 10:32:19.146,-0.0091,-0.0071,-1.0306, 0.0003, 0.0025,-0.0324,-0.0105,-0.0149,-0.0118,-0.0071, 0.0062,-0.4469
17-Jan-2019 10:32:19.186,-0.0129,-0.0016,-1.0323,-0.0059, 0.0032,-0.0309,-0.0094,-0.0138,-0.0129,-0.0071, 0.0062,-0.4469
17-Jan-2019 10:32:19.226,-0.0103,-0.0061,-1.0323,-0.0007, 0.0007,-0.0355,-0.0115,-0.0149,-0.0118,-0.0071, 0.0062,-0.4469
17-Jan-2019 10:32:19.266,-0.0101,-0.0032,-1.0314,-0.0046, 0.0014,-0.0329,-0.0105,-0.0160,-0.0129,-0.0071, 0.0062,-0.4469
17-Jan-2019 10:32:19.306,-0.0129,-0.0015,-1.0311,-0.0018, 0.0047,-0.0300,-0.0105,-0.0170,-0.0118,-0.0071, 0.0061,-0.4469
17-Jan-2019 10:32:19.345,-0.0095,-0.0040,-1.0273,-0.0032,-0.0009,-0.0291,-0.0094,-0.0117,-0.0118,-0.0071, 0.0061,-0.4469
17-Jan-2019 10:32:19.385,-0.0110,-0.0040,-1.0306,-0.0027, 0.0031,-0.0280,-0.0105,-0.0128,-0.0118,-0.0071, 0.0061,-0.4469
17-Jan-2019 10:32:19.425,-0.0113,-0.0043,-1.0286,-0.0032, 0.0015,-0.0307,-0.0105,-0.0138,-0.0129,-0.0071, 0.0061,-0.4469
17-Jan-2019 10:32:19.465,-0.0095,-0.0033,-1.0334,-0.0043, 0.0012,-0.0309,-0.0105,-0.0138,-0.0118,-0.0071, 0.0061,-0.4469
17-Jan-2019 10:32:19.504,-0.0129,-0.0009,-1.0293,-0.0041, 0.0025,-0.0303,-0.0105,-0.0117,-0.0118,-0.0071, 0.0060,-0.4469
17-Jan-2019 10:32:19.544,-0.0085, 0.0019,-1.0295,-0.0013,-0.0009,-0.0287,-0.0116,-0.0128,-0.0129,-0.0071, 0.0060,-0.4469
17-Jan-2019 10:32:19.584,-0.0103,-0.0079,-1.0269,-0.0020,-0.0037,-0.0265,-0.0094,-0.0138,-0.0107,-0.0071, 0.0060,-0.4469
17-Jan-2019 10:32:19.623,-0.0109,-0.0124,-1.0308,-0.0039, 0.0066,-0.0286,-0.0105,-0.0149,-0.0107,-0.0071, 0.0060,-0.4469
17-Jan-2019 10:32:19.663,-0.0146,-0.0016,-1.0308,-0.0039, 0.0053,-0.0315,-0.0094,-0.0149,-0.0129,-0.0071, 0.0060,-0.4469
17-Jan-2019 10:32:19.702,-0.0094,-0.0020,-1.0267,-0.0009, 0.0020,-0.0284,-0.0094,-0.0127,-0.0139,-0.0071, 0.0060,-0.4469
17-Jan-2019 10:32:19.743,-0.0090,-0.0044,-1.0259,-0.0021,-0.0002,-0.0265,-0.0115,-0.0138,-0.0129,-0.0071, 0.0060,-0.4469
17-Jan-2019 10:32:19.783,-0.0116,-0.0058,-1.0229,-0.0056, 0.0041,-0.0248,-0.0094,-0.0149,-0.0118,-0.0071, 0.0060,-0.4469
17-Jan-2019 10:32:19.822,-0.0125,-0.0023,-1.0248,-0.0018, 0.0022,-0.0248,-0.0105,-0.0128,-0.0129,-0.0071, 0.0059,-0.4469
17-Jan-2019 10:32:19.861,-0.0114,-0.0045,-1.0278,-0.0007, 0.0005,-0.0262,-0.0083,-0.0149,-0.0139,-0.0071, 0.0059,-0.4469
17-Jan-2019 10:32:19.902,-0.0084,-0.0042,-1.0246, 0.0003, 0.0038,-0.0247,-0.0105,-0.0128,-0.0118,-0.0071, 0.0059,-0.4469
17-Jan-2019 10:32:19.941,-0.0089,-0.0026,-1.0162,-0.0022, 0.0022,-0.0195,-0.0094,-0.0128,-0.0118,-0.0071, 0.0059,-0.4469
17-Jan-2019 10:32:19.981,-0.0087,-0.0049,-1.0149,-0.0043, 0.0031,-0.0148,-0.0105,-0.0160,-0.0107,-0.0071, 0.0059,-0.4469
17-Jan-2019 10:32:20.021,-0.0115,-0.0020,-1.0149,-0.0049, 0.0038,-0.0143,-0.0105,-0.0138,-0.0118,-0.0071, 0.0059,-0.4469
17-Jan-2019 10:32:20.061,-0.0100,-0.0062,-1.0149,-0.0026,-0.0014,-0.0177,-0.0105,-0.0106,-0.0107,-0.0071, 0.0059,-0.4469
17-Jan-2019 10:32:20.100,-0.0108,-0.0038,-1.0161,-0.0022, 0.0029,-0.0172,-0.0105,-0.0138,-0.0129,-0.0071, 0.0059,-0.4469
17-Jan-2019 10:32:20.140,-0.0117,-0.0061,-1.0152,-0.0035, 0.0013,-0.0155,-0.0084,-0.0128,-0.0118,-0.0071, 0.0059,-0.4469
17-Jan-2019 10:32:20.180,-0.0115,-0.0034,-1.0132,-0.0042, 0.0035,-0.0151,-0.0094,-0.0138,-0.0129,-0.0071, 0.0060,-0.4469
17-Jan-2019 10:32:20.220,-0.0107,-0.0032,-1.0059,-0.0009, 0.0008,-0.0074,-0.0126,-0.0138,-0.0129,-0.0072, 0.0059,-0.4469
17-Jan-2019 10:32:20.259,-0.0103,-0.0047,-0.9959,-0.0028, 0.0020, 0.0023,-0.0105,-0.0128,-0.0107,-0.0071, 0.0059,-0.4469
17-Jan-2019 10:32:20.299,-0.0104,-0.0036,-0.9949,-0.0027, 0.0030, 0.0040,-0.0094,-0.0117,-0.0107,-0.0071, 0.0059,-0.4469
17-Jan-2019 10:32:20.341,-0.0098,-0.0031,-0.9960,-0.0027, 0.0020, 0.0039,-0.0094,-0.0128,-0.0129,-0.0071, 0.0059,-0.4470
17-Jan-2019 10:32:20.378,-0.0099,-0.0043,-0.9940,-0.0038, 0.0021, 0.0046,-0.0094,-0.0128,-0.0129,-0.0071, 0.0059,-0.4470
17-Jan-2019 10:32:20.420,-0.0105,-0.0026,-0.9916,-0.0039, 0.0025, 0.0079,-0.0105,-0.0128,-0.0129,-0.0071, 0.0059,-0.4470
17-Jan-2019 10:32:20.457,-0.0092,-0.0061,-0.9907,-0.0025, 0.0008, 0.0099,-0.0105,-0.0160,-0.0129,-0.0071, 0.0059,-0.4470
17-Jan-2019 10:32:20.498,-0.0110,-0.0037,-0.9918,-0.0031, 0.0023, 0.0097,-0.0105,-0.0128,-0.0107,-0.0071, 0.0059,-0.4470
17-Jan-2019 10:32:20.537,-0.0078,-0.0058,-0.9931,-0.0018,-0.0004, 0.0066,-0.0105,-0.0138,-0.0139,-0.0071, 0.0058,-0.4470
17-Jan-2019 10:32:20.576,-0.0102,-0.0026,-0.9893,-0.0036, 0.0037, 0.0098,-0.0094,-0.0160,-0.0107,-0.0071, 0.0058,-0.4470
17-Jan-2019 10:32:20.616,-0.0094,-0.0019,-0.9845,-0.0029, 0.0016, 0.0139,-0.0094,-0.0149,-0.0129,-0.0071, 0.0058,-0.4469
17-Jan-2019 10:32:20.657,-0.0092,-0.0067,-0.9836,-0.0030, 0.0016, 0.0177,-0.0105,-0.0128,-0.0118,-0.0071, 0.0058,-0.4470
17-Jan-2019 10:32:20.696,-0.0122,-0.0025,-0.9877,-0.0043, 0.0049, 0.0128,-0.0105,-0.0117,-0.0107,-0.0071, 0.0059,-0.4470
17-Jan-2019 10:32:20.736,-0.0089,-0.0037,-0.9910, 0.0001, 0.0004, 0.0094,-0.0094,-0.0138,-0.0118,-0.0072, 0.0059,-0.4470
17-Jan-2019 10:32:20.776,-0.0106,-0.0038,-0.9908,-0.0038, 0.0028, 0.0107,-0.0094,-0.0138,-0.0129,-0.0072, 0.0059,-0.4470
17-Jan-2019 10:32:20.816,-0.0103,-0.0033,-0.9852,-0.0017, 0.0017, 0.0135,-0.0094,-0.0128,-0.0118,-0.0072, 0.0058,-0.4469
17-Jan-2019 10:32:20.855,-0.0091,-0.0048,-0.9823,-0.0014, 0.0017, 0.0165,-0.0094,-0.0149,-0.0118,-0.0072, 0.0058,-0.4469
17-Jan-2019 10:32:20.894,-0.0092,-0.0051,-0.9828,-0.0015, 0.0017, 0.0172,-0.0105,-0.0160,-0.0107,-0.0073, 0.0058,-0.4469
17-Jan-2019 10:32:20.935,-0.0088,-0.0039,-0.9871,-0.0020, 0.0023, 0.0129,-0.0094,-0.0138,-0.0139,-0.0073, 0.0058,-0.4469
17-Jan-2019 10:32:20.974,-0.0097,-0.0038,-0.9899,-0.0026, 0.0025, 0.0109,-0.0105,-0.0149,-0.0139,-0.0073, 0.0058,-0.4469
17-Jan-2019 10:32:21.014,-0.0099,-0.0033,-0.9893,-0.0020, 0.0021, 0.0100,-0.0116,-0.0128,-0.0129,-0.0073, 0.0058,-0.4469
17-Jan-2019 10:32:21.053,-0.0093,-0.0042,-0.9883,-0.0027, 0.0030, 0.0117,-0.0094,-0.0149,-0.0107,-0.0073, 0.0058,-0.4469
17-Jan-2019 10:32:21.093,-0.0092,-0.0030,-0.9842,-0.0028, 0.0017, 0.0146,-0.0105,-0.0128,-0.0118,-0.0073, 0.0058,-0.4469
17-Jan-2019 10:32:21.133,-0.0096,-0.0035,-0.9823,-0.0018, 0.0017, 0.0188,-0.0094,-0.0128,-0.0107,-0.0073, 0.0057,-0.4469
17-Jan-2019 10:32:21.173,-0.0106,-0.0033,-0.9815,-0.0022, 0.0026, 0.0181,-0.0084,-0.0128,-0.0107,-0.0073, 0.0057,-0.4469
17-Jan-2019 10:32:21.213,-0.0097,-0.0027,-0.9872,-0.0037, 0.0023, 0.0141,-0.0094,-0.0138,-0.0107,-0.0073, 0.0057,-0.4469
17-Jan-2019 10:32:21.253,-0.0107,-0.0039,-0.9923,-0.0030, 0.0004, 0.0083,-0.0105,-0.0138,-0.0139,-0.0073, 0.0057,-0.4469
17-Jan-2019 10:32:21.292,-0.0113,-0.0029,-0.9907,-0.0036, 0.0027, 0.0085,-0.0116,-0.0117,-0.0129,-0.0073, 0.0057,-0.4469
17-Jan-2019 10:32:21.332,-0.0099,-0.0049,-0.9863,-0.0029, 0.0015, 0.0131,-0.0094,-0.0128,-0.0107,-0.0073, 0.0057,-0.4469
17-Jan-2019 10:32:21.371,-0.0106,-0.0043,-0.9836,-0.0032, 0.0018, 0.0146,-0.0105,-0.0138,-0.0118,-0.0073, 0.0057,-0.4469
17-Jan-2019 10:32:21.411,-0.0094,-0.0036,-0.9839,-0.0017, 0.0014, 0.0157,-0.0094,-0.0138,-0.0118,-0.0073, 0.0057,-0.4469
17-Jan-2019 10:32:21.451,-0.0091,-0.0028,-0.9855,-0.0020, 0.0029, 0.0150,-0.0105,-0.0138,-0.0118,-0.0073, 0.0057,-0.4469
17-Jan-2019 10:32:21.491,-0.0094,-0.0038,-0.9884,-0.0022, 0.0013, 0.0119,-0.0105,-0.0138,-0.0129,-0.0072, 0.0057,-0.4469
17-Jan-2019 10:32:21.531,-0.0097,-0.0049,-0.9853,-0.0032, 0.0012, 0.0120,-0.0094,-0.0117,-0.0129,-0.0072, 0.0057,-0.4469
17-Jan-2019 10:32:21.570,-0.0088,-0.0042,-0.9855,-0.0021, 0.0028, 0.0155,-0.0094,-0.0138,-0.0118,-0.0072, 0.0057,-0.4469
17-Jan-2019 10:32:21.610,-0.0101,-0.0032,-0.9857,-0.0028, 0.0026, 0.0153,-0.0083,-0.0149,-0.0129,-0.0073, 0.0057,-0.4469
17-Jan-2019 10:32:21.650,-0.0083,-0.0044,-0.9877,-0.0021, 0.0019, 0.0150,-0.0116,-0.0128,-0.0118,-0.0072, 0.0057,-0.4469
17-Jan-2019 10:32:21.689,-0.0107,-0.0026,-0.9843,-0.0042, 0.0047, 0.0156,-0.0105,-0.0138,-0.0118,-0.0073, 0.0056,-0.4469
17-Jan-2019 10:32:21.729,-0.0084,-0.0047,-0.9837,-0.0021, 0.0010, 0.0156,-0.0115,-0.0170,-0.0139,-0.0073, 0.0056,-0.4469
17-Jan-2019 10:32:21.769,-0.0102,-0.0043,-0.9846,-0.0043, 0.0017, 0.0157,-0.0116,-0.0138,-0.0118,-0.0073, 0.0056,-0.4469
17-Jan-2019 10:32:21.808,-0.0099,-0.0035,-0.9872,-0.0028, 0.0028, 0.0122,-0.0116,-0.0117,-0.0129,-0.0073, 0.0055,-0.4469
17-Jan-2019 10:32:21.849,-0.0088,-0.0025,-0.9919,-0.0018, 0.0006, 0.0095,-0.0094,-0.0160,-0.0118,-0.0073, 0.0055,-0.4469
17-Jan-2019 10:32:21.888,-0.0103,-0.0066,-0.9913,-0.0025, 0.0001, 0.0094,-0.0105,-0.0138,-0.0118,-0.0073, 0.0055,-0.4469
17-Jan-2019 10:32:21.928,-0.0099,-0.0031,-0.9877,-0.0027, 0.0026, 0.0111,-0.0094,-0.0128,-0.0129,-0.0073, 0.0055,-0.4469
17-Jan-2019 10:32:21.968,-0.0080,-0.0025,-0.9823,-0.0017, 0.0043, 0.0167,-0.0094,-0.0128,-0.0129,-0.0073, 0.0055,-0.4469
17-Jan-2019 10:32:22.007,-0.0102,-0.0033,-0.9809,-0.0021, 0.0025, 0.0185,-0.0094,-0.0128,-0.0118,-0.0073, 0.0056,-0.4469
17-Jan-2019 10:32:22.048,-0.0101,-0.0055,-0.9840,-0.0036, 0.0011, 0.0183,-0.0105,-0.0138,-0.0118,-0.0073, 0.0056,-0.4469
17-Jan-2019 10:32:22.087,-0.0100,-0.0032,-0.9878,-0.0032, 0.0032, 0.0137,-0.0105,-0.0128,-0.0129,-0.0073, 0.0056,-0.4469
17-Jan-2019 10:32:22.126,-0.0086,-0.0035,-0.9888,-0.0027, 0.0013, 0.0129,-0.0105,-0.0117,-0.0118,-0.0073, 0.0056,-0.4469
17-Jan-2019 10:32:22.166,-0.0108,-0.0049,-0.9903,-0.0036, 0.0019, 0.0098,-0.0094,-0.0128,-0.0129,-0.0073, 0.0056,-0.4469
17-Jan-2019 10:32:22.206,-0.0092,-0.0033,-0.9869,-0.0023, 0.0029, 0.0120,-0.0126,-0.0117,-0.0118,-0.0073, 0.0056,-0.4469
17-Jan-2019 10:32:22.246,-0.0100,-0.0019,-0.9835,-0.0025, 0.0032, 0.0168,-0.0105,-0.0138,-0.0118,-0.0073, 0.0056,-0.4469
17-Jan-2019 10:32:22.286,-0.0116,-0.0042,-0.9840,-0.0031, 0.0011, 0.0174,-0.0115,-0.0149,-0.0139,-0.0073, 0.0055,-0.4469
17-Jan-2019 10:32:22.325,-0.0098,-0.0043,-0.9861,-0.0031, 0.0015, 0.0141,-0.0094,-0.0149,-0.0129,-0.0073, 0.0055,-0.4469
17-Jan-2019 10:32:22.364,-0.0089,-0.0032,-0.9887,-0.0023, 0.0023, 0.0125,-0.0105,-0.0138,-0.0118,-0.0073, 0.0055,-0.4469
17-Jan-2019 10:32:22.405,-0.0108,-0.0035,-0.9888,-0.0022, 0.0010, 0.0106,-0.0126,-0.0160,-0.0118,-0.0073, 0.0055,-0.4470
17-Jan-2019 10:32:22.444,-0.0106,-0.0031,-0.9860,-0.0031, 0.0010, 0.0105,-0.0105,-0.0128,-0.0118,-0.0074, 0.0054,-0.4470
17-Jan-2019 10:32:22.484,-0.0093,-0.0042,-0.9870,-0.0028, 0.0028, 0.0149,-0.0137,-0.0170,-0.0129,-0.0074, 0.0054,-0.4470
17-Jan-2019 10:32:22.524,-0.0094,-0.0042,-0.9852,-0.0030, 0.0014, 0.0156,-0.0115,-0.0160,-0.0107,-0.0074, 0.0054,-0.4470
17-Jan-2019 10:32:22.564,-0.0101,-0.0036,-0.9838,-0.0023, 0.0017, 0.0145,-0.0084,-0.0138,-0.0118,-0.0075, 0.0054,-0.4470
17-Jan-2019 10:32:22.603,-0.0100,-0.0023,-0.9857,-0.0026, 0.0029, 0.0157,-0.0147,-0.0192,-0.0118,-0.0077, 0.0053,-0.4470
17-Jan-2019 10:32:22.642,-0.0098,-0.0034,-0.9843,-0.0021, 0.0012, 0.0146,-0.0104,-0.0202,-0.0107,-0.0079, 0.0052,-0.4470
17-Jan-2019 10:32:22.682,-0.0099,-0.0044,-0.9845,-0.0023,-0.0001, 0.0121,-0.0094,-0.0138,-0.0107,-0.0079, 0.0053,-0.4470
17-Jan-2019 10:32:22.722,-0.0114,-0.0049,-0.9887,-0.0019,-0.0002, 0.0116,-0.0095,-0.0074,-0.0107,-0.0081, 0.0052,-0.4470
17-Jan-2019 10:32:22.762,-0.0117,-0.0037,-0.9876,-0.0044, 0.0018, 0.0140, 0.0031, 0.0277,-0.0106,-0.0083, 0.0051,-0.4470
17-Jan-2019 10:32:22.802,-0.0116,-0.0029,-0.9869,-0.0024, 0.0026, 0.0114,-0.0084,-0.0064,-0.0128,-0.0083, 0.0051,-0.4470
17-Jan-2019 10:32:22.841,-0.0122,-0.0026,-0.9814,-0.0036, 0.0031, 0.0132,-0.0011, 0.0181,-0.0117,-0.0078, 0.0052,-0.4470
17-Jan-2019 10:32:22.881,-0.0096,-0.0032,-0.9818,-0.0026, 0.0011, 0.0185,-0.0011, 0.0160,-0.0128,-0.0069, 0.0055,-0.4470
17-Jan-2019 10:32:22.921,-0.0060,-0.0042,-0.9860,-0.0013, 0.0024, 0.0121,-0.0126,-0.0181,-0.0107,-0.0058, 0.0059,-0.4470
17-Jan-2019 10:32:22.961,-0.0079,-0.0057,-0.9835,-0.0016, 0.0010, 0.0164,-0.0115,-0.0149,-0.0118,-0.0059, 0.0059,-0.4470
17-Jan-2019 10:32:23.001,-0.0088,-0.0036,-0.9844,-0.0030, 0.0021, 0.0127,-0.0084,-0.0074,-0.0118,-0.0059, 0.0059,-0.4470
17-Jan-2019 10:32:23.040,-0.0095,-0.0031,-0.9830,-0.0022, 0.0025, 0.0118, 0.0062, 0.0320,-0.0127,-0.0050, 0.0063,-0.4470
17-Jan-2019 10:32:23.079,-0.0091,-0.0051,-0.9824, 0.0013,-0.0008, 0.0046,-0.0052,-0.0010,-0.0128,-0.0043, 0.0066,-0.4470
17-Jan-2019 10:32:23.120,-0.0075,-0.0044,-0.9879,-0.0030, 0.0022, 0.0139,-0.0157,-0.0319,-0.0129,-0.0047, 0.0064,-0.4470
17-Jan-2019 10:32:23.160,-0.0079,-0.0046,-0.9856,-0.0030, 0.0021, 0.0144,-0.0115,-0.0202,-0.0118,-0.0053, 0.0062,-0.4470
17-Jan-2019 10:32:23.199,-0.0081,-0.0047,-0.9878,-0.0022, 0.0011, 0.0127,-0.0115,-0.0160,-0.0129,-0.0053, 0.0062,-0.4470
17-Jan-2019 10:32:23.239,-0.0071,-0.0050,-0.9884,-0.0022, 0.0004, 0.0135,-0.0115,-0.0213,-0.0129,-0.0054, 0.0061,-0.4470
17-Jan-2019 10:32:23.278,-0.0093,-0.0045,-0.9859,-0.0018, 0.0015, 0.0129,-0.0199,-0.0362,-0.0129,-0.0062, 0.0058,-0.4471
17-Jan-2019 10:32:23.318,-0.0094,-0.0040,-0.9851,-0.0028, 0.0017, 0.0149,-0.0220,-0.0448,-0.0119,-0.0073, 0.0054,-0.4471
17-Jan-2019 10:32:23.357,-0.0112,-0.0034,-0.9782,-0.0010, 0.0008, 0.0129,-0.0073,-0.0085,-0.0118,-0.0074, 0.0053,-0.4471
17-Jan-2019 10:32:23.397,-0.0099,-0.0033,-0.9852,-0.0018, 0.0019, 0.0151,-0.0084,-0.0138,-0.0129,-0.0074, 0.0053,-0.4471
17-Jan-2019 10:32:23.437,-0.0094,-0.0036,-0.9884,-0.0024, 0.0016, 0.0126,-0.0105,-0.0128,-0.0107,-0.0074, 0.0053,-0.4471
17-Jan-2019 10:32:23.476,-0.0094,-0.0033,-0.9877,-0.0015, 0.0013, 0.0122,-0.0105,-0.0149,-0.0129,-0.0074, 0.0053,-0.4471
17-Jan-2019 10:32:23.516,-0.0101,-0.0043,-0.9884,-0.0020, 0.0018, 0.0119,-0.0116,-0.0117,-0.0129,-0.0074, 0.0053,-0.4471
17-Jan-2019 10:32:23.556,-0.0092,-0.0048,-1.0020,-0.0018, 0.0006, 0.0040,-0.0105,-0.0138,-0.0118,-0.0073, 0.0053,-0.4471
17-Jan-2019 10:32:23.596,-0.0103,-0.0037,-1.0262,-0.0035, 0.0021,-0.0207,-0.0094,-0.0149,-0.0129,-0.0074, 0.0054,-0.4471
17-Jan-2019 10:32:23.635,-0.0112,-0.0038,-1.0411,-0.0029, 0.0018,-0.0394,-0.0094,-0.0160,-0.0118,-0.0075, 0.0054,-0.4471
17-Jan-2019 10:32:23.675,-0.0103,-0.0030,-1.0401,-0.0029, 0.0020,-0.0420,-0.0105,-0.0138,-0.0107,-0.0075, 0.0054,-0.4471
17-Jan-2019 10:32:23.715,-0.0154,-0.0042,-0.9809,-0.0032, 0.0029, 0.0111,-0.0073,-0.0064,-0.0118,-0.0074, 0.0054,-0.4471
17-Jan-2019 10:32:23.755,-0.0158,-0.0030,-0.9865,-0.0004, 0.0007, 0.0212,-0.0095,-0.0096,-0.0118,-0.0073, 0.0054,-0.4471
17-Jan-2019 10:32:23.794,-0.0094,-0.0029,-0.9875,-0.0030, 0.0005, 0.0155, 0.0010, 0.0192,-0.0117,-0.0062, 0.0058,-0.4471
17-Jan-2019 10:32:23.834,-0.0108,-0.0040,-0.9850,-0.0004, 0.0022, 0.0096,-0.0105,-0.0149,-0.0129,-0.0059, 0.0060,-0.4471
17-Jan-2019 10:32:23.874,-0.0064,-0.0052,-0.9851, 0.0002, 0.0006, 0.0118,-0.0157,-0.0298,-0.0129,-0.0062, 0.0058,-0.4471
17-Jan-2019 10:32:23.914,-0.0084,-0.0045,-0.9894,-0.0020, 0.0021, 0.0149,-0.0251,-0.0501,-0.0119,-0.0073, 0.0054,-0.4471
17-Jan-2019 10:32:23.954,-0.0099,-0.0040,-0.9808,-0.0002,-0.0010, 0.0067,-0.0073,-0.0074,-0.0128,-0.0075, 0.0053,-0.4471
17-Jan-2019 10:32:23.994,-0.0078,-0.0042,-0.9875,-0.0023, 0.0029, 0.0140,-0.0073,-0.0085,-0.0118,-0.0074, 0.0053,-0.4471
17-Jan-2019 10:32:24.034,-0.0102,-0.0045,-0.9839,-0.0015, 0.0023, 0.0124,-0.0105,-0.0106,-0.0118,-0.0074, 0.0053,-0.4471
17-Jan-2019 10:32:24.073,-0.0087,-0.0032,-0.9869,-0.0025, 0.0037, 0.0152,-0.0105,-0.0149,-0.0118,-0.0074, 0.0053,-0.4471
17-Jan-2019 10:32:24.112,-0.0097,-0.0031,-0.9855,-0.0032, 0.0011, 0.0127,-0.0116,-0.0128,-0.0107,-0.0074, 0.0053,-0.4471
17-Jan-2019 10:32:24.152,-0.0086,-0.0036,-0.9868,-0.0029, 0.0014, 0.0135,-0.0105,-0.0138,-0.0129,-0.0074, 0.0053,-0.4471
17-Jan-2019 10:32:24.192,-0.0094,-0.0036,-0.9874,-0.0033, 0.0018, 0.0136,-0.0094,-0.0138,-0.0118,-0.0074, 0.0053,-0.4471
17-Jan-2019 10:32:24.232,-0.0091,-0.0039,-0.9857,-0.0020,-0.0002, 0.0141,-0.0105,-0.0138,-0.0118,-0.0074, 0.0053,-0.4471
17-Jan-2019 10:32:24.273,-0.0091,-0.0037,-0.9883,-0.0032, 0.0025, 0.0127,-0.0094,-0.0159,-0.0129,-0.0074, 0.0053,-0.4471
17-Jan-2019 10:32:24.312,-0.0090,-0.0053,-0.9855,-0.0020, 0.0027, 0.0141,-0.0094,-0.0149,-0.0129,-0.0075, 0.0053,-0.4471
17-Jan-2019 10:32:24.356,-0.0098,-0.0023,-0.9855,-0.0023, 0.0030, 0.0145,-0.0105,-0.0138,-0.0118,-0.0075, 0.0053,-0.4471
17-Jan-2019 10:32:24.391,-0.0108,-0.0018,-0.9852,-0.0030, 0.0016, 0.0147,-0.0105,-0.0138,-0.0129,-0.0075, 0.0053,-0.4471
17-Jan-2019 10:32:24.432,-0.0092,-0.0034,-0.9864,-0.0048, 0.0016, 0.0142,-0.0084,-0.0128,-0.0118,-0.0074, 0.0053,-0.4471
17-Jan-2019 10:32:24.472,-0.0094,-0.0028,-0.9870,-0.0033, 0.0008, 0.0149,-0.0094,-0.0149,-0.0129,-0.0075, 0.0053,-0.4471
17-Jan-2019 10:32:24.512,-0.0106,-0.0044,-0.9841,-0.0002, 0.0002, 0.0131,-0.0094,-0.0149,-0.0129,-0.0075, 0.0053,-0.4471
17-Jan-2019 10:32:24.550,-0.0107,-0.0048,-0.9840,-0.0029, 0.0006, 0.0136,-0.0126,-0.0149,-0.0129,-0.0075, 0.0052,-0.4471
17-Jan-2019 10:32:24.591,-0.0102,-0.0049,-0.9874,-0.0046, 0.0018, 0.0159,-0.0105,-0.0106,-0.0118,-0.0075, 0.0052,-0.4471
17-Jan-2019 10:32:24.631,-0.0058,-0.0052,-0.9924,-0.0047, 0.0009, 0.0128,-0.0126,-0.0192,-0.0118,-0.0075, 0.0052,-0.4471
17-Jan-2019 10:32:24.670,-0.0059,-0.0039,-0.9850,-0.0026, 0.0055, 0.0112,-0.0084,-0.0085,-0.0128,-0.0074, 0.0052,-0.4471
17-Jan-2019 10:32:24.709,-0.0100,-0.0025,-0.9890,-0.0022, 0.0049, 0.0133,-0.0115,-0.0149,-0.0118,-0.0074, 0.0052,-0.4471
17-Jan-2019 10:32:24.749,-0.0064,-0.0029,-0.9868, 0.0001, 0.0035, 0.0150,-0.0115,-0.0181,-0.0118,-0.0074, 0.0052,-0.4471
17-Jan-2019 10:32:24.789,-0.0101,-0.0043,-0.9872, 0.0007,-0.0023, 0.0125,-0.0115,-0.0160,-0.0107,-0.0074, 0.0052,-0.4471
17-Jan-2019 10:32:24.829,-0.0084,-0.0035,-0.9840,-0.0014,-0.0010, 0.0136,-0.0094,-0.0106,-0.0107,-0.0074, 0.0052,-0.4471
17-Jan-2019 10:32:24.868,-0.0123,-0.0038,-0.9895, 0.0007,-0.0051, 0.0140,-0.0094,-0.0138,-0.0129,-0.0074, 0.0052,-0.4471
17-Jan-2019 10:32:24.908,-0.0089,-0.0051,-0.9830,-0.0033, 0.0011, 0.0134,-0.0126,-0.0170,-0.0118,-0.0074, 0.0052,-0.4471
17-Jan-2019 10:32:24.947,-0.0153,-0.0023,-0.9861,-0.0030, 0.0056, 0.0170,-0.0094,-0.0128,-0.0129,-0.0074, 0.0052,-0.4471
17-Jan-2019 10:32:24.987,-0.0093,-0.0034,-0.9864,-0.0036,-0.0004, 0.0125,-0.0116,-0.0138,-0.0118,-0.0074, 0.0052,-0.4471
17-Jan-2019 10:32:25.027,-0.0148, 0.0013,-0.9787,-0.0027, 0.0013, 0.0108,-0.0094,-0.0117,-0.0097,-0.0075, 0.0052,-0.4470
17-Jan-2019 10:32:25.067,-0.0134,-0.0058,-0.9877,-0.0044,-0.0008, 0.0196,-0.0105,-0.0170,-0.0118,-0.0075, 0.0052,-0.4470
17-Jan-2019 10:32:25.106,-0.0127,-0.0040,-0.9861,-0.0030, 0.0025, 0.0147,-0.0084,-0.0085,-0.0118,-0.0075, 0.0052,-0.4470
17-Jan-2019 10:32:25.146,-0.0097,-0.0018,-0.9854,-0.0055,-0.0007, 0.0118,-0.0083,-0.0170,-0.0129,-0.0075, 0.0052,-0.4470
17-Jan-2019 10:32:25.186,-0.0076,-0.0074,-0.9905,-0.0023, 0.0044, 0.0163,-0.0115,-0.0160,-0.0107,-0.0075, 0.0052,-0.4470
17-Jan-2019 10:32:25.226,-0.0085,-0.0085,-0.9861,-0.0019, 0.0010, 0.0110,-0.0105,-0.0149,-0.0118,-0.0075, 0.0052,-0.4470
17-Jan-2019 10:32:25.265,-0.0075,-0.0058,-0.9852,-0.0014, 0.0020, 0.0130,-0.0115,-0.0149,-0.0107,-0.0075, 0.0052,-0.4470
17-Jan-2019 10:32:25.305,-0.0090,-0.0051,-0.9874,-0.0014, 0.0019, 0.0111,-0.0137,-0.0160,-0.0129,-0.0075, 0.0052,-0.4470
17-Jan-2019 10:32:25.345,-0.0098,-0.0045,-0.9808, 0.0001,-0.0022, 0.0098,-0.0094,-0.0106,-0.0128,-0.0075, 0.0052,-0.4470
17-Jan-2019 10:32:25.384,-0.0108,-0.0044,-0.9896,-0.0024, 0.0020, 0.0152,-0.0126,-0.0181,-0.0107,-0.0076, 0.0052,-0.4470
17-Jan-2019 10:32:25.424,-0.0082,-0.0038,-0.9890,-0.0005,-0.0003, 0.0130,-0.0094,-0.0160,-0.0118,-0.0075, 0.0052,-0.4470
17-Jan-2019 10:32:25.464,-0.0079,-0.0055,-0.9827,-0.0012, 0.0005, 0.0111,-0.0094,-0.0159,-0.0129,-0.0076, 0.0052,-0.4470
17-Jan-2019 10:32:25.504,-0.0124,-0.0063,-0.9799, 0.0006,-0.0001, 0.0023,-0.0053, 0.0022,-0.0107,-0.0079, 0.0051,-0.4470
17-Jan-2019 10:32:25.543,-0.0108,-0.0032,-0.9874,-0.0028, 0.0009, 0.0128,-0.0074, 0.0000,-0.0118,-0.0078, 0.0051,-0.4470
