Timestamp,accelX(g),accelY(g),accelZ(g),accelUserX(g),accelUserY(g),accelUserZ(g),gyroX(rad/s),gyroY(rad/s),gyroZ(rad/s),Roll(rads),Pitch(rads),Yaw(rads)
17-Jan-2019 10:33:57.334, 0.1521,-0.4839,-0.5646,-0.1679,-0.0427, 0.2968,-0.1073, 0.3757,-0.1117, 0.3021, 0.5188,-0.7202
17-Jan-2019 10:33:57.359, 0.2428,-0.4944,-0.7504,-0.0779,-0.0233, 0.1447,-0.7386, 0.2485, 0.2950, 0.3042, 0.5086,-0.7086
17-Jan-2019 10:33:57.398, 0.1579,-0.4709,-0.7130,-0.1188,-0.0832, 0.0659,-1.6046,-0.3371, 0.9810, 0.2767, 0.4665,-0.6609
17-Jan-2019 10:33:57.438, 0.0879,-0.2636,-0.3975,-0.1096, 0.0829, 0.4042,-1.2971, 1.0329, 0.8572, 0.2681, 0.4184,-0.6033
17-Jan-2019 10:33:57.478,-0.0146,-0.1416,-0.5554,-0.2895, 0.2579, 0.4812, 0.3768, 1.5803, 1.1946, 0.3166, 0.4188,-0.5566
17-Jan-2019 10:33:57.517, 0.2588,-0.1767,-0.6329, 0.0872, 0.3006, 0.0818,-0.9831, 0.1584, 0.3522, 0.2973, 0.4209,-0.5182
17-Jan-2019 10:33:57.557,-0.2578,-0.1187,-0.1150,-0.5024, 0.1196, 1.0138,-0.0662, 0.4911, 0.2232, 0.2910, 0.3977,-0.5054
17-Jan-2019 10:33:57.597, 0.0660, 0.0629,-0.3500,-0.1194, 0.4966, 0.5810, 0.3449, 1.0447,-0.5355, 0.3348, 0.4051,-0.5196
17-Jan-2019 10:33:57.637,-0.2160, 0.0343,-0.0866,-0.3401, 0.3699, 0.6899,-1.0530,-0.2112,-0.0568, 0.3591, 0.3812,-0.5249
17-Jan-2019 10:33:57.677,-0.2437, 0.3921,-0.0132,-0.6179, 0.6981, 0.9068,-4.1992,-2.3415,-0.5141, 0.2695, 0.2620,-0.4916
17-Jan-2019 10:33:57.717,-0.1015, 0.0988,-0.0858,-0.2975, 0.3011, 1.0142,-1.1458,-0.0499,-1.4195, 0.2472, 0.1647,-0.5173
17-Jan-2019 10:33:57.756, 0.0063, 0.0274,-0.3260,-0.1779, 0.2380, 0.8612,-2.7772,-1.5896,-0.0881, 0.2143, 0.0817,-0.5286
17-Jan-2019 10:33:57.796, 0.3648,-0.3429,-1.1806, 0.2117,-0.2612, 0.0643,-2.1918, 0.2569,-0.8404, 0.1852,-0.0283,-0.5168
17-Jan-2019 10:33:57.836, 0.2382,-0.0415,-1.3750,-0.0394,-0.2166,-0.4211,-0.4071,-1.4451,-0.4606, 0.1675,-0.0680,-0.5459
17-Jan-2019 10:33:57.876, 0.7099,-0.2256,-1.4610, 0.7298,-0.2685,-0.3005,-1.8236,-0.5758,-0.1763, 0.1124,-0.1126,-0.5401
17-Jan-2019 10:33:57.916, 0.2787,-0.0121,-2.1172, 0.2414,-0.2719,-1.0257,-0.8349,-0.1627,-0.5094, 0.1048,-0.1703,-0.5566
17-Jan-2019 10:33:57.956, 0.1687, 0.1970,-2.4624, 0.1056,-0.0496,-1.4185,-0.8566,-1.6563, 1.6759, 0.0676,-0.1973,-0.5200
17-Jan-2019 10:33:57.995,-0.0409, 0.4645,-2.1008,-0.0198, 0.2262,-1.3007, 0.7453,-0.5331,-0.5863, 0.0297,-0.1985,-0.4988
17-Jan-2019 10:33:58.035, 0.2620, 0.6004,-1.1600, 0.1452, 0.4343,-0.3686, 1.9973,-0.4290,-0.7908, 0.0085,-0.1291,-0.5432
17-Jan-2019 10:33:58.074, 0.3449, 0.4917,-1.0472, 0.3535, 0.4208, 0.0890, 0.6231,-0.0549, 0.9735,-0.0038,-0.0797,-0.5273
17-Jan-2019 10:33:58.114,-0.0782, 0.2944,-1.8690, 0.0523, 0.2759,-0.7902,-1.0422,-1.1529, 0.5190,-0.0177,-0.0979,-0.4964
17-Jan-2019 10:33:58.154,-0.0551,-0.2369,-1.4145,-0.3626, 0.5626,-0.4080, 5.3546, 0.2222,-0.1369,-0.0185,-0.0320,-0.4943
17-Jan-2019 10:33:58.194,-0.1200,-0.1587,-0.1496,-0.1808,-0.7275,-1.7074, 0.3197, 0.6034,-0.0378,-0.0075,-0.0049,-0.4783
17-Jan-2019 10:33:58.233,-0.0745, 0.1803,-0.9664, 0.0144, 0.0496,-0.0351,-0.0188, 0.0988, 0.2068, 0.0055, 0.0029,-0.4659
17-Jan-2019 10:33:58.273, 0.0200,-0.0187,-0.9438, 0.0124,-0.0043, 0.0272,-0.0098,-0.4363,-0.0125,-0.0002, 0.0029,-0.4656
17-Jan-2019 10:33:58.313,-0.1103,-0.1412,-0.9575, 0.0142, 0.0047,-0.0089,-0.0084,-0.0053,-0.0118,-0.0077, 0.0026,-0.4674
17-Jan-2019 10:33:58.353,-0.0109,-0.0029,-0.9641,-0.0000,-0.0042, 0.0139, 0.0063, 0.0299,-0.0127,-0.0071, 0.0028,-0.4674
17-Jan-2019 10:33:58.392,-0.0044,-0.0052,-0.9882,-0.0028,-0.0012, 0.0278,-0.0126,-0.0202,-0.0118,-0.0072, 0.0028,-0.4674
17-Jan-2019 10:33:58.432,-0.0063,-0.0053,-0.9835, 0.0017,-0.0019, 0.0123,-0.0115,-0.0170,-0.0097,-0.0072, 0.0027,-0.4674
17-Jan-2019 10:33:58.472,-0.0067,-0.0048,-0.9823,-0.0007,-0.0028, 0.0180,-0.0105,-0.0096,-0.0118,-0.0072, 0.0027,-0.4674
17-Jan-2019 10:33:58.512,-0.0075,-0.0047,-0.9837,-0.0006,-0.0009, 0.0180,-0.0126,-0.0160,-0.0129,-0.0072, 0.0026,-0.4674
17-Jan-2019 10:33:58.551,-0.0077,-0.0048,-0.9831, 0.0001,-0.0020, 0.0157,-0.0105,-0.0117,-0.0118,-0.0072, 0.0026,-0.4674
17-Jan-2019 10:33:58.591,-0.0059,-0.0045,-0.9835,-0.0003,-0.0030, 0.0164,-0.0105,-0.0128,-0.0118,-0.0072, 0.0026,-0.4674
17-Jan-2019 10:33:58.630,-0.0081,-0.0046,-0.9822,-0.0010,-0.0018, 0.0169,-0.0105,-0.0138,-0.0107,-0.0072, 0.0026,-0.4674
17-Jan-2019 10:33:58.670,-0.0073,-0.0049,-0.9838,-0.0009,-0.0036, 0.0174,-0.0105,-0.0138,-0.0118,-0.0073, 0.0026,-0.4674
17-Jan-2019 10:33:58.710,-0.0068,-0.0053,-0.9837, 0.0006,-0.0022, 0.0154,-0.0094,-0.0128,-0.0129,-0.0073, 0.0025,-0.4674
17-Jan-2019 10:33:58.749,-0.0078,-0.0064,-0.9812, 0.0002,-0.0022, 0.0181,-0.0115,-0.0149,-0.0129,-0.0073, 0.0025,-0.4674
17-Jan-2019 10:33:58.789,-0.0065,-0.0048,-0.9823,-0.0001,-0.0019, 0.0163,-0.0105,-0.0138,-0.0118,-0.0073, 0.0026,-0.4674
17-Jan-2019 10:33:58.830,-0.0072,-0.0053,-0.9844, 0.0006,-0.0011, 0.0172,-0.0094,-0.0149,-0.0129,-0.0073, 0.0026,-0.4674
17-Jan-2019 10:33:58.870,-0.0067,-0.0038,-0.9830,-0.0000,-0.0009, 0.0164,-0.0094,-0.0128,-0.0129,-0.0073, 0.0026,-0.4674
17-Jan-2019 10:33:58.908,-0.0076,-0.0033,-0.9829, 0.0008,-0.0006, 0.0168,-0.0115,-0.0138,-0.0129,-0.0074, 0.0026,-0.4674
17-Jan-2019 10:33:58.948,-0.0064,-0.0039,-0.9833, 0.0004,-0.0038, 0.0169,-0.0126,-0.0138,-0.0118,-0.0074, 0.0026,-0.4674
17-Jan-2019 10:33:58.987,-0.0068,-0.0036,-0.9837, 0.0011,-0.0013, 0.0177,-0.0116,-0.0128,-0.0118,-0.0074, 0.0025,-0.4674
17-Jan-2019 10:33:59.027,-0.0078,-0.0041,-0.9825, 0.0010,-0.0032, 0.0161,-0.0094,-0.0159,-0.0129,-0.0074, 0.0025,-0.4674
17-Jan-2019 10:33:59.067,-0.0069,-0.0046,-0.9831, 0.0008,-0.0030, 0.0168,-0.0105,-0.0138,-0.0139,-0.0074, 0.0025,-0.4674
17-Jan-2019 10:33:59.107,-0.0082,-0.0052,-0.9827, 0.0004,-0.0018, 0.0171,-0.0094,-0.0138,-0.0129,-0.0074, 0.0025,-0.4675
17-Jan-2019 10:33:59.146,-0.0064,-0.0048,-0.9837, 0.0000,-0.0033, 0.0158,-0.0094,-0.0149,-0.0107,-0.0074, 0.0025,-0.4674
17-Jan-2019 10:33:59.186,-0.0063,-0.0053,-0.9836,-0.0005,-0.0023, 0.0158,-0.0094,-0.0138,-0.0118,-0.0074, 0.0025,-0.4674
17-Jan-2019 10:33:59.227,-0.0066,-0.0047,-0.9841,-0.0002,-0.0016, 0.0166,-0.0105,-0.0160,-0.0118,-0.0074, 0.0025,-0.4674
17-Jan-2019 10:33:59.267,-0.0066,-0.0037,-0.9827, 0.0012,-0.0029, 0.0160,-0.0115,-0.0160,-0.0129,-0.0075, 0.0025,-0.4674
17-Jan-2019 10:33:59.306,-0.0060,-0.0061,-0.9828, 0.0005,-0.0020, 0.0169,-0.0094,-0.0138,-0.0118,-0.0074, 0.0025,-0.4675
17-Jan-2019 10:33:59.346,-0.0075,-0.0038,-0.9832,-0.0010,-0.0017, 0.0176,-0.0094,-0.0138,-0.0129,-0.0074, 0.0025,-0.4675
17-Jan-2019 10:33:59.385,-0.0062,-0.0046,-0.9832, 0.0011,-0.0030, 0.0156,-0.0084,-0.0117,-0.0118,-0.0074, 0.0025,-0.4674
17-Jan-2019 10:33:59.426,-0.0060,-0.0050,-0.9826,-0.0004,-0.0020, 0.0158,-0.0094,-0.0138,-0.0118,-0.0074, 0.0025,-0.4674
17-Jan-2019 10:33:59.467,-0.0070,-0.0038,-0.9830,-0.0010,-0.0014, 0.0172,-0.0105,-0.0128,-0.0118,-0.0074, 0.0026,-0.4674
17-Jan-2019 10:33:59.505,-0.0066,-0.0067,-0.9843,-0.0001,-0.0029, 0.0171,-0.0105,-0.0128,-0.0118,-0.0074, 0.0026,-0.4674
17-Jan-2019 10:33:59.545,-0.0066,-0.0055,-0.9837,-0.0002,-0.0023, 0.0170,-0.0073,-0.0127,-0.0118,-0.0074, 0.0026,-0.4674
17-Jan-2019 10:33:59.584,-0.0065,-0.0028,-0.9839,-0.0009,-0.0004, 0.0146,-0.0094,-0.0128,-0.0118,-0.0074, 0.0026,-0.4674
17-Jan-2019 10:33:59.625,-0.0071,-0.0046,-0.9843, 0.0010,-0.0029, 0.0169,-0.0105,-0.0138,-0.0107,-0.0074, 0.0026,-0.4674
17-Jan-2019 10:33:59.665,-0.0071,-0.0036,-0.9834, 0.0005,-0.0030, 0.0152,-0.0116,-0.0117,-0.0118,-0.0074, 0.0026,-0.4674
17-Jan-2019 10:33:59.704,-0.0075,-0.0039,-0.9839, 0.0003,-0.0021, 0.0164,-0.0105,-0.0128,-0.0118,-0.0073, 0.0026,-0.4674
17-Jan-2019 10:33:59.743,-0.0067,-0.0052,-0.9844, 0.0001,-0.0020, 0.0161,-0.0116,-0.0138,-0.0107,-0.0074, 0.0026,-0.4674
17-Jan-2019 10:33:59.783,-0.0069,-0.0060,-0.9835, 0.0009,-0.0026, 0.0155,-0.0105,-0.0128,-0.0107,-0.0074, 0.0026,-0.4674
17-Jan-2019 10:33:59.823,-0.0066,-0.0048,-0.9834, 0.0003,-0.0023, 0.0163,-0.0094,-0.0138,-0.0129,-0.0074, 0.0026,-0.4674
17-Jan-2019 10:33:59.862,-0.0076,-0.0035,-0.9841, 0.0006,-0.0019, 0.0148,-0.0105,-0.0117,-0.0129,-0.0074, 0.0025,-0.4674
17-Jan-2019 10:33:59.903,-0.0074,-0.0047,-0.9831, 0.0001,-0.0014, 0.0169,-0.0105,-0.0117,-0.0129,-0.0074, 0.0025,-0.4673
17-Jan-2019 10:33:59.942,-0.0077,-0.0044,-0.9833, 0.0003,-0.0026, 0.0157,-0.0105,-0.0138,-0.0107,-0.0073, 0.0025,-0.4673
17-Jan-2019 10:33:59.982,-0.0069,-0.0051,-0.9843, 0.0009,-0.0011, 0.0164,-0.0105,-0.0138,-0.0107,-0.0074, 0.0025,-0.4673
17-Jan-2019 10:34:00.022,-0.0074,-0.0047,-0.9840,-0.0006,-0.0021, 0.0154,-0.0094,-0.0138,-0.0118,-0.0074, 0.0025,-0.4673
17-Jan-2019 10:34:00.061,-0.0062,-0.0041,-0.9835, 0.0006,-0.0017, 0.0170,-0.0073,-0.0159,-0.0128,-0.0074, 0.0025,-0.4673
17-Jan-2019 10:34:00.100,-0.0067,-0.0049,-0.9833, 0.0004,-0.0024, 0.0167,-0.0116,-0.0138,-0.0107,-0.0073, 0.0025,-0.4673
17-Jan-2019 10:34:00.141,-0.0066,-0.0048,-0.9838, 0.0009,-0.0023, 0.0152,-0.0084,-0.0138,-0.0118,-0.0073, 0.0025,-0.4673
17-Jan-2019 10:34:00.182,-0.0070,-0.0048,-0.9830, 0.0004,-0.0017, 0.0156,-0.0073,-0.0138,-0.0128,-0.0073, 0.0025,-0.4673
17-Jan-2019 10:34:00.220,-0.0072,-0.0050,-0.9840,-0.0002,-0.0019, 0.0161,-0.0094,-0.0128,-0.0129,-0.0073, 0.0025,-0.4673
17-Jan-2019 10:34:00.261,-0.0065,-0.0042,-0.9846,-0.0001,-0.0019, 0.0166,-0.0105,-0.0117,-0.0118,-0.0073, 0.0025,-0.4673
17-Jan-2019 10:34:00.300,-0.0065,-0.0045,-0.9840,-0.0001,-0.0014, 0.0158,-0.0094,-0.0149,-0.0129,-0.0073, 0.0025,-0.4673
17-Jan-2019 10:34:00.341,-0.0070,-0.0048,-0.9833, 0.0009,-0.0024, 0.0162,-0.0115,-0.0138,-0.0129,-0.0073, 0.0025,-0.4673
17-Jan-2019 10:34:00.379,-0.0068,-0.0048,-0.9847, 0.0001,-0.0024, 0.0157,-0.0115,-0.0160,-0.0107,-0.0073, 0.0025,-0.4673
17-Jan-2019 10:34:00.419,-0.0079,-0.0044,-0.9832,-0.0001,-0.0026, 0.0151,-0.0094,-0.0138,-0.0118,-0.0073, 0.0025,-0.4673
17-Jan-2019 10:34:00.458,-0.0069,-0.0052,-0.9840,-0.0002,-0.0017, 0.0161,-0.0116,-0.0138,-0.0118,-0.0072, 0.0025,-0.4673
17-Jan-2019 10:34:00.498,-0.0074,-0.0040,-0.9843, 0.0004,-0.0013, 0.0157,-0.0094,-0.0149,-0.0129,-0.0073, 0.0025,-0.4673
17-Jan-2019 10:34:00.537,-0.0076,-0.0051,-0.9842, 0.0002,-0.0026, 0.0162,-0.0094,-0.0138,-0.0129,-0.0073, 0.0026,-0.4673
17-Jan-2019 10:34:00.577,-0.0068,-0.0050,-0.9843, 0.0002,-0.0021, 0.0151,-0.0094,-0.0149,-0.0118,-0.0073, 0.0026,-0.4673
17-Jan-2019 10:34:00.617,-0.0073,-0.0043,-0.9844,-0.0002,-0.0023, 0.0154,-0.0094,-0.0138,-0.0118,-0.0073, 0.0026,-0.4673
17-Jan-2019 10:34:00.657,-0.0076,-0.0052,-0.9844,-0.0003,-0.0022, 0.0153,-0.0105,-0.0149,-0.0118,-0.0073, 0.0026,-0.4673
17-Jan-2019 10:34:00.697,-0.0075,-0.0044,-0.9848, 0.0005,-0.0017, 0.0149,-0.0105,-0.0128,-0.0118,-0.0073, 0.0026,-0.4673
17-Jan-2019 10:34:00.738,-0.0078,-0.0038,-0.9852, 0.0004,-0.0011, 0.0162,-0.0105,-0.0138,-0.0129,-0.0073, 0.0026,-0.4673
17-Jan-2019 10:34:00.776,-0.0078,-0.0047,-0.9846,-0.0007,-0.0033, 0.0168,-0.0105,-0.0128,-0.0129,-0.0073, 0.0026,-0.4673
17-Jan-2019 10:34:00.818,-0.0084,-0.0044,-0.9842,-0.0007,-0.0018, 0.0164,-0.0105,-0.0117,-0.0118,-0.0073, 0.0026,-0.4673
17-Jan-2019 10:34:00.858,-0.0065,-0.0046,-0.9827,-0.0001,-0.0017, 0.0167,-0.0084,-0.0138,-0.0118,-0.0073, 0.0026,-0.4673
17-Jan-2019 10:34:00.896,-0.0075,-0.0045,-0.9843,-0.0000,-0.0019, 0.0152,-0.0105,-0.0117,-0.0129,-0.0073, 0.0026,-0.4673
17-Jan-2019 10:34:00.936,-0.0077,-0.0052,-0.9847, 0.0010,-0.0023, 0.0154,-0.0116,-0.0138,-0.0118,-0.0073, 0.0026,-0.4673
17-Jan-2019 10:34:00.975,-0.0077,-0.0033,-0.9834,-0.0004,-0.0024, 0.0168,-0.0094,-0.0149,-0.0118,-0.0073, 0.0026,-0.4673
17-Jan-2019 10:34:01.017,-0.0073,-0.0056,-0.9836, 0.0011,-0.0022, 0.0164,-0.0105,-0.0128,-0.0118,-0.0073, 0.0027,-0.4673
17-Jan-2019 10:34:01.055,-0.0070,-0.0044,-0.9840, 0.0008,-0.0025, 0.0155,-0.0084,-0.0149,-0.0107,-0.0073, 0.0027,-0.4673
17-Jan-2019 10:34:01.095,-0.0065,-0.0048,-0.9842,-0.0006,-0.0019, 0.0153,-0.0116,-0.0138,-0.0118,-0.0073, 0.0027,-0.4673
17-Jan-2019 10:34:01.135,-0.0076,-0.0060,-0.9847, 0.0007,-0.0030, 0.0160,-0.0094,-0.0138,-0.0118,-0.0073, 0.0027,-0.4673
17-Jan-2019 10:34:01.174,-0.0079,-0.0050,-0.9854,-0.0008,-0.0019, 0.0150,-0.0094,-0.0138,-0.0139,-0.0073, 0.0027,-0.4673
17-Jan-2019 10:34:01.215,-0.0073,-0.0045,-0.9838, 0.0001,-0.0015, 0.0166,-0.0105,-0.0138,-0.0107,-0.0073, 0.0027,-0.4673
17-Jan-2019 10:34:01.254,-0.0070,-0.0050,-0.9840, 0.0003,-0.0022, 0.0152,-0.0094,-0.0138,-0.0129,-0.0073, 0.0027,-0.4673
17-Jan-2019 10:34:01.293,-0.0078,-0.0040,-0.9838,-0.0002,-0.0013, 0.0151,-0.0094,-0.0128,-0.0129,-0.0073, 0.0027,-0.4673
17-Jan-2019 10:34:01.333,-0.0067,-0.0050,-0.9846,-0.0002,-0.0014, 0.0150,-0.0105,-0.0149,-0.0107,-0.0073, 0.0028,-0.4673
17-Jan-2019 10:34:01.372,-0.0060,-0.0038,-0.9845, 0.0006,-0.0014, 0.0155,-0.0105,-0.0138,-0.0139,-0.0073, 0.0028,-0.4672
17-Jan-2019 10:34:01.412,-0.0059,-0.0045,-0.9843,-0.0001,-0.0022, 0.0155,-0.0105,-0.0138,-0.0118,-0.0073, 0.0028,-0.4672
17-Jan-2019 10:34:01.452,-0.0068,-0.0044,-0.9835, 0.0009,-0.0031, 0.0163,-0.0094,-0.0138,-0.0107,-0.0073, 0.0028,-0.4672
17-Jan-2019 10:34:01.491,-0.0069,-0.0046,-0.9841, 0.0003,-0.0020, 0.0162,-0.0105,-0.0138,-0.0118,-0.0073, 0.0028,-0.4672
17-Jan-2019 10:34:01.531,-0.0068,-0.0046,-0.9846,-0.0004,-0.0020, 0.0150,-0.0126,-0.0138,-0.0107,-0.0073, 0.0028,-0.4672
17-Jan-2019 10:34:01.570,-0.0066,-0.0051,-0.9842,-0.0000,-0.0015, 0.0157,-0.0094,-0.0149,-0.0129,-0.0073, 0.0028,-0.4672
17-Jan-2019 10:34:01.610,-0.0073,-0.0042,-0.9836, 0.0003,-0.0018, 0.0157,-0.0084,-0.0149,-0.0118,-0.0073, 0.0028,-0.4672
17-Jan-2019 10:34:01.650,-0.0073,-0.0042,-0.9849, 0.0006,-0.0009, 0.0161,-0.0094,-0.0117,-0.0118,-0.0073, 0.0028,-0.4672
17-Jan-2019 10:34:01.689,-0.0072,-0.0045,-0.9850, 0.0001,-0.0021, 0.0148,-0.0105,-0.0138,-0.0129,-0.0073, 0.0028,-0.4672
17-Jan-2019 10:34:01.729,-0.0069,-0.0043,-0.9854, 0.0003,-0.0022, 0.0156,-0.0105,-0.0138,-0.0139,-0.0073, 0.0028,-0.4672
17-Jan-2019 10:34:01.769,-0.0071,-0.0046,-0.9854, 0.0002,-0.0018, 0.0150,-0.0105,-0.0149,-0.0118,-0.0073, 0.0028,-0.4672
17-Jan-2019 10:34:01.809,-0.0070,-0.0050,-0.9846, 0.0001,-0.0021, 0.0158,-0.0094,-0.0128,-0.0118,-0.0073, 0.0028,-0.4672
17-Jan-2019 10:34:01.849,-0.0068,-0.0044,-0.9859,-0.0003,-0.0016, 0.0146,-0.0105,-0.0128,-0.0129,-0.0073, 0.0028,-0.4672
17-Jan-2019 10:34:01.888,-0.0079,-0.0054,-0.9852,-0.0000,-0.0021, 0.0154,-0.0094,-0.0127,-0.0139,-0.0073, 0.0028,-0.4672
17-Jan-2019 10:34:01.928,-0.0075,-0.0051,-0.9845, 0.0005,-0.0021, 0.0151,-0.0084,-0.0138,-0.0118,-0.0073, 0.0028,-0.4673
17-Jan-2019 10:34:01.968,-0.0076,-0.0046,-0.9838,-0.0006,-0.0012, 0.0140,-0.0116,-0.0128,-0.0118,-0.0073, 0.0027,-0.4672
17-Jan-2019 10:34:02.008,-0.0069,-0.0044,-0.9841, 0.0007,-0.0025, 0.0147,-0.0105,-0.0128,-0.0129,-0.0073, 0.0027,-0.4673
17-Jan-2019 10:34:02.048,-0.0069,-0.0034,-0.9865, 0.0002,-0.0022, 0.0150,-0.0094,-0.0149,-0.0129,-0.0073, 0.0027,-0.4673
17-Jan-2019 10:34:02.088,-0.0068,-0.0049,-0.9848,-0.0001,-0.0025, 0.0150,-0.0105,-0.0128,-0.0107,-0.0073, 0.0027,-0.4673
17-Jan-2019 10:34:02.127,-0.0077,-0.0050,-0.9845, 0.0001,-0.0023, 0.0148,-0.0105,-0.0160,-0.0118,-0.0073, 0.0027,-0.4673
17-Jan-2019 10:34:02.166,-0.0075,-0.0053,-0.9858,-0.0000,-0.0014, 0.0148,-0.0105,-0.0138,-0.0107,-0.0073, 0.0027,-0.4672
17-Jan-2019 10:34:02.206,-0.0077,-0.0046,-0.9852, 0.0002,-0.0030, 0.0149,-0.0094,-0.0138,-0.0107,-0.0073, 0.0027,-0.4672
17-Jan-2019 10:34:02.246,-0.0080,-0.0051,-0.9843, 0.0002,-0.0021, 0.0152,-0.0105,-0.0128,-0.0118,-0.0073, 0.0027,-0.4672
17-Jan-2019 10:34:02.285,-0.0068,-0.0043,-0.9852, 0.0004,-0.0017, 0.0151,-0.0094,-0.0128,-0.0107,-0.0073, 0.0027,-0.4672
17-Jan-2019 10:34:02.325,-0.0070,-0.0053,-0.9850, 0.0008,-0.0025, 0.0144,-0.0105,-0.0128,-0.0107,-0.0073, 0.0027,-0.4672
17-Jan-2019 10:34:02.365,-0.0064,-0.0046,-0.9848, 0.0007,-0.0015, 0.0153,-0.0084,-0.0128,-0.0118,-0.0073, 0.0028,-0.4672
17-Jan-2019 10:34:02.404,-0.0077,-0.0041,-0.9857,-0.0003,-0.0013, 0.0142,-0.0105,-0.0149,-0.0129,-0.0073, 0.0028,-0.4672
17-Jan-2019 10:34:02.444,-0.0069,-0.0038,-0.9841, 0.0003,-0.0022, 0.0157,-0.0105,-0.0117,-0.0129,-0.0073, 0.0028,-0.4673
17-Jan-2019 10:34:02.484,-0.0076,-0.0049,-0.9846,-0.0004,-0.0013, 0.0146,-0.0105,-0.0128,-0.0129,-0.0073, 0.0028,-0.4673
17-Jan-2019 10:34:02.524,-0.0067,-0.0042,-0.9848, 0.0001,-0.0014, 0.0154,-0.0105,-0.0138,-0.0118,-0.0073, 0.0028,-0.4673
17-Jan-2019 10:34:02.563,-0.0078,-0.0046,-0.9852, 0.0001,-0.0026, 0.0161,-0.0105,-0.0138,-0.0118,-0.0073, 0.0028,-0.4673
17-Jan-2019 10:34:02.603,-0.0063,-0.0048,-0.9848, 0.0010,-0.0018, 0.0147,-0.0094,-0.0138,-0.0118,-0.0073, 0.0028,-0.4673
17-Jan-2019 10:34:02.643,-0.0066,-0.0044,-0.9863, 0.0004,-0.0018, 0.0147,-0.0105,-0.0138,-0.0118,-0.0073, 0.0027,-0.4673
17-Jan-2019 10:34:02.683,-0.0068,-0.0045,-0.9857, 0.0006,-0.0015, 0.0142,-0.0115,-0.0149,-0.0139,-0.0073, 0.0028,-0.4673
17-Jan-2019 10:34:02.722,-0.0081,-0.0046,-0.9851, 0.0009,-0.0024, 0.0147,-0.0116,-0.0117,-0.0118,-0.0073, 0.0027,-0.4673
17-Jan-2019 10:34:02.762,-0.0069,-0.0044,-0.9852, 0.0011,-0.0017, 0.0160,-0.0105,-0.0138,-0.0129,-0.0073, 0.0027,-0.4673
17-Jan-2019 10:34:02.802,-0.0061,-0.0041,-0.9847, 0.0000,-0.0015, 0.0150,-0.0094,-0.0149,-0.0118,-0.0073, 0.0027,-0.4673
17-Jan-2019 10:34:02.842,-0.0076,-0.0050,-0.9851, 0.0008,-0.0018, 0.0153,-0.0094,-0.0128,-0.0118,-0.0073, 0.0027,-0.4673
17-Jan-2019 10:34:02.881,-0.0067,-0.0041,-0.9854, 0.0002,-0.0013, 0.0147,-0.0094,-0.0138,-0.0118,-0.0073, 0.0028,-0.4673
17-Jan-2019 10:34:02.921,-0.0067,-0.0050,-0.9840,-0.0003,-0.0019, 0.0151,-0.0094,-0.0138,-0.0118,-0.0073, 0.0028,-0.4673
17-Jan-2019 10:34:02.961,-0.0074,-0.0052,-0.9855, 0.0002,-0.0020, 0.0153,-0.0073,-0.0149,-0.0118,-0.0073, 0.0028,-0.4673
17-Jan-2019 10:34:03.000,-0.0074,-0.0049,-0.9853, 0.0008,-0.0022, 0.0139,-0.0105,-0.0128,-0.0118,-0.0073, 0.0028,-0.4673
17-Jan-2019 10:34:03.040,-0.0076,-0.0047,-0.9845, 0.0000,-0.0012, 0.0147,-0.0084,-0.0128,-0.0118,-0.0073, 0.0028,-0.4673
17-Jan-2019 10:34:03.080,-0.0074,-0.0045,-0.9848, 0.0004,-0.0017, 0.0152,-0.0084,-0.0138,-0.0129,-0.0073, 0.0028,-0.4673
17-Jan-2019 10:34:03.119,-0.0068,-0.0043,-0.9846,-0.0008,-0.0019, 0.0156,-0.0115,-0.0138,-0.0129,-0.0073, 0.0028,-0.4673
17-Jan-2019 10:34:03.159,-0.0066,-0.0051,-0.9862, 0.0010,-0.0020, 0.0143,-0.0105,-0.0149,-0.0107,-0.0073, 0.0028,-0.4673
17-Jan-2019 10:34:03.199,-0.0075,-0.0042,-0.9846,-0.0002,-0.0020, 0.0145,-0.0094,-0.0128,-0.0129,-0.0073, 0.0029,-0.4673
17-Jan-2019 10:34:03.239,-0.0066,-0.0054,-0.9854, 0.0003,-0.0019, 0.0151,-0.0116,-0.0128,-0.0118,-0.0073, 0.0029,-0.4673
17-Jan-2019 10:34:03.279,-0.0067,-0.0048,-0.9850, 0.0002,-0.0016, 0.0152,-0.0116,-0.0138,-0.0118,-0.0073, 0.0029,-0.4673
17-Jan-2019 10:34:03.318,-0.0079,-0.0046,-0.9855,-0.0002,-0.0016, 0.0148,-0.0094,-0.0138,-0.0129,-0.0073, 0.0028,-0.4673
17-Jan-2019 10:34:03.359,-0.0074,-0.0055,-0.9846, 0.0006,-0.0022, 0.0144,-0.0105,-0.0149,-0.0129,-0.0073, 0.0028,-0.4673
17-Jan-2019 10:34:03.399,-0.0078,-0.0044,-0.9847, 0.0002,-0.0013, 0.0149,-0.0105,-0.0149,-0.0129,-0.0074, 0.0028,-0.4673
17-Jan-2019 10:34:03.439,-0.0077,-0.0048,-0.9850, 0.0005,-0.0014, 0.0144,-0.0105,-0.0149,-0.0129,-0.0074, 0.0028,-0.4673
17-Jan-2019 10:34:03.479,-0.0071,-0.0042,-0.9847, 0.0006,-0.0021, 0.0143,-0.0094,-0.0138,-0.0107,-0.0074, 0.0028,-0.4673
17-Jan-2019 10:34:03.518,-0.0073,-0.0047,-0.9852, 0.0006,-0.0020, 0.0152,-0.0116,-0.0128,-0.0129,-0.0074, 0.0028,-0.4673
17-Jan-2019 10:34:03.557,-0.0067,-0.0040,-0.9853, 0.0008,-0.0019, 0.0150,-0.0105,-0.0138,-0.0129,-0.0074, 0.0028,-0.4674
17-Jan-2019 10:34:03.598,-0.0074,-0.0044,-0.9844, 0.0006,-0.0019, 0.0146,-0.0094,-0.0149,-0.0118,-0.0075, 0.0029,-0.4674
17-Jan-2019 10:34:03.637,-0.0068,-0.0045,-0.9838,-0.0002,-0.0019, 0.0144,-0.0105,-0.0128,-0.0118,-0.0075, 0.0029,-0.4673
17-Jan-2019 10:34:03.676,-0.0076,-0.0053,-0.9847, 0.0007,-0.0022, 0.0153,-0.0105,-0.0149,-0.0129,-0.0075, 0.0028,-0.4673
17-Jan-2019 10:34:03.716,-0.0069,-0.0049,-0.9861, 0.0001,-0.0027, 0.0143,-0.0115,-0.0149,-0.0107,-0.0075, 0.0028,-0.4673
17-Jan-2019 10:34:03.755,-0.0072,-0.0047,-0.9848, 0.0004,-0.0014, 0.0150,-0.0126,-0.0117,-0.0129,-0.0075, 0.0028,-0.4673
17-Jan-2019 10:34:03.795,-0.0081,-0.0050,-0.9853, 0.0006,-0.0011, 0.0140,-0.0105,-0.0149,-0.0107,-0.0075, 0.0028,-0.4673
17-Jan-2019 10:34:03.835,-0.0070,-0.0054,-0.9854, 0.0005,-0.0030, 0.0150,-0.0126,-0.0138,-0.0129,-0.0075, 0.0028,-0.4673
17-Jan-2019 10:34:03.875,-0.0064,-0.0048,-0.9847, 0.0004,-0.0023, 0.0149,-0.0115,-0.0149,-0.0118,-0.0075, 0.0028,-0.4673
17-Jan-2019 10:34:03.915,-0.0076,-0.0047,-0.9854, 0.0004,-0.0012, 0.0147,-0.0105,-0.0117,-0.0129,-0.0075, 0.0028,-0.4673
17-Jan-2019 10:34:03.955,-0.0071,-0.0062,-0.9857, 0.0011,-0.0021, 0.0145,-0.0105,-0.0128,-0.0107,-0.0075, 0.0028,-0.4673
17-Jan-2019 10:34:03.995,-0.0068,-0.0038,-0.9855, 0.0011,-0.0011, 0.0142,-0.0105,-0.0138,-0.0118,-0.0075, 0.0028,-0.4673
17-Jan-2019 10:34:04.035,-0.0066,-0.0042,-0.9854, 0.0005,-0.0015, 0.0155,-0.0105,-0.0128,-0.0118,-0.0075, 0.0028,-0.4673
17-Jan-2019 10:34:04.074,-0.0060,-0.0044,-0.9862, 0.0013,-0.0025, 0.0144,-0.0105,-0.0138,-0.0107,-0.0075, 0.0028,-0.4673
17-Jan-2019 10:34:04.114,-0.0075,-0.0042,-0.9857, 0.0000,-0.0026, 0.0147,-0.0116,-0.0128,-0.0129,-0.0075, 0.0028,-0.4673
17-Jan-2019 10:34:04.153,-0.0067,-0.0051,-0.9856, 0.0004,-0.0020, 0.0145,-0.0105,-0.0149,-0.0118,-0.0075, 0.0028,-0.4673
17-Jan-2019 10:34:04.193,-0.0057,-0.0054,-0.9847, 0.0010,-0.0029, 0.0141,-0.0105,-0.0138,-0.0129,-0.0075, 0.0028,-0.4673
17-Jan-2019 10:34:04.233,-0.0079,-0.0042,-0.9859, 0.0002,-0.0015, 0.0148,-0.0105,-0.0149,-0.0107,-0.0075, 0.0028,-0.4673
17-Jan-2019 10:34:04.273,-0.0075,-0.0041,-0.9852, 0.0004,-0.0007, 0.0145,-0.0105,-0.0138,-0.0129,-0.0075, 0.0028,-0.4673
17-Jan-2019 10:34:04.312,-0.0065,-0.0056,-0.9855, 0.0013,-0.0025, 0.0143,-0.0105,-0.0138,-0.0129,-0.0075, 0.0028,-0.4673
17-Jan-2019 10:34:04.352,-0.0074,-0.0046,-0.9855, 0.0010,-0.0023, 0.0144,-0.0105,-0.0149,-0.0129,-0.0075, 0.0028,-0.4673
17-Jan-2019 10:34:04.392,-0.0069,-0.0050,-0.9848, 0.0006,-0.0021, 0.0143,-0.0105,-0.0128,-0.0139,-0.0075, 0.0028,-0.4673
17-Jan-2019 10:34:04.431,-0.0074,-0.0043,-0.9869,-0.0003,-0.0018, 0.0148,-0.0083,-0.0149,-0.0129,-0.0075, 0.0028,-0.4673
17-Jan-2019 10:34:04.471,-0.0081,-0.0047,-0.9856,-0.0003,-0.0015, 0.0137,-0.0115,-0.0149,-0.0129,-0.0075, 0.0028,-0.4673
17-Jan-2019 10:34:04.511,-0.0068,-0.0045,-0.9864, 0.0011,-0.0017, 0.0135,-0.0094,-0.0149,-0.0107,-0.0075, 0.0028,-0.4673
17-Jan-2019 10:34:04.551,-0.0074,-0.0045,-0.9858, 0.0000,-0.0020, 0.0139,-0.0105,-0.0138,-0.0118,-0.0075, 0.0028,-0.4673
17-Jan-2019 10:34:04.591,-0.0074,-0.0040,-0.9849, 0.0004,-0.0016, 0.0148,-0.0105,-0.0149,-0.0118,-0.0076, 0.0028,-0.4673
17-Jan-2019 10:34:04.630,-0.0069,-0.0041,-0.9851, 0.0006,-0.0013, 0.0138,-0.0105,-0.0138,-0.0107,-0.0076, 0.0028,-0.4673
17-Jan-2019 10:34:04.671,-0.0074,-0.0038,-0.9850, 0.0003,-0.0010, 0.0140,-0.0105,-0.0138,-0.0118,-0.0076, 0.0028,-0.4673
17-Jan-2019 10:34:04.710,-0.0073,-0.0056,-0.9854, 0.0016,-0.0028, 0.0146,-0.0094,-0.0138,-0.0129,-0.0076, 0.0029,-0.4673
17-Jan-2019 10:34:04.751,-0.0067,-0.0065,-0.9862, 0.0006,-0.0020, 0.0142,-0.0126,-0.0138,-0.0107,-0.0076, 0.0029,-0.4673
17-Jan-2019 10:34:04.789,-0.0064,-0.0042,-0.9868,-0.0003, 0.0003, 0.0126,-0.0105,-0.0149,-0.0129,-0.0076, 0.0029,-0.4673
17-Jan-2019 10:34:04.830,-0.0067,-0.0034,-0.9869, 0.0003,-0.0017, 0.0130,-0.0094,-0.0128,-0.0118,-0.0076, 0.0029,-0.4673
17-Jan-2019 10:34:04.870,-0.0072,-0.0050,-0.9858, 0.0004,-0.0018, 0.0151,-0.0094,-0.0138,-0.0118,-0.0076, 0.0029,-0.4674
17-Jan-2019 10:34:04.908,-0.0076,-0.0039,-0.9867,-0.0007,-0.0025, 0.0137,-0.0084,-0.0138,-0.0118,-0.0076, 0.0029,-0.4673
17-Jan-2019 10:34:04.950,-0.0069,-0.0055,-0.9859, 0.0003,-0.0020, 0.0136,-0.0083,-0.0159,-0.0118,-0.0076, 0.0029,-0.4673
17-Jan-2019 10:34:04.988,-0.0083,-0.0048,-0.9860,-0.0002,-0.0020, 0.0138,-0.0094,-0.0128,-0.0118,-0.0076, 0.0029,-0.4673
17-Jan-2019 10:34:05.028,-0.0071,-0.0055,-0.9862, 0.0002,-0.0019, 0.0136,-0.0116,-0.0128,-0.0129,-0.0076, 0.0029,-0.4674
17-Jan-2019 10:34:05.067,-0.0080,-0.0047,-0.9865,-0.0009,-0.0013, 0.0146,-0.0094,-0.0138,-0.0118,-0.0076, 0.0029,-0.4674
17-Jan-2019 10:34:05.107,-0.0075,-0.0050,-0.9851, 0.0003,-0.0015, 0.0150,-0.0094,-0.0138,-0.0118,-0.0076, 0.0029,-0.4674
17-Jan-2019 10:34:05.147,-0.0070,-0.0028,-0.9876, 0.0007,-0.0023, 0.0139,-0.0084,-0.0149,-0.0118,-0.0076, 0.0029,-0.4674
17-Jan-2019 10:34:05.187,-0.0063,-0.0062,-0.9863,-0.0000,-0.0037, 0.0135,-0.0105,-0.0128,-0.0118,-0.0076, 0.0029,-0.4674
17-Jan-2019 10:34:05.226,-0.0078,-0.0047,-0.9852,-0.0005,-0.0015, 0.0138,-0.0115,-0.0149,-0.0129,-0.0076, 0.0029,-0.4674
17-Jan-2019 10:34:05.266,-0.0060,-0.0055,-0.9859,-0.0008,-0.0016, 0.0129,-0.0105,-0.0149,-0.0107,-0.0076, 0.0029,-0.4674
17-Jan-2019 10:34:05.307,-0.0080,-0.0043,-0.9854, 0.0002,-0.0011, 0.0133,-0.0105,-0.0138,-0.0107,-0.0076, 0.0029,-0.4674
17-Jan-2019 10:34:05.345,-0.0064,-0.0042,-0.9852, 0.0001,-0.0015, 0.0148,-0.0094,-0.0138,-0.0129,-0.0075, 0.0029,-0.4674
17-Jan-2019 10:34:05.385,-0.0073,-0.0033,-0.9863, 0.0006, 0.0000, 0.0143,-0.0105,-0.0138,-0.0129,-0.0075, 0.0029,-0.4674
17-Jan-2019 10:34:05.425,-0.0062,-0.0050,-0.9858, 0.0002,-0.0017, 0.0137,-0.0094,-0.0128,-0.0129,-0.0075, 0.0029,-0.4674
17-Jan-2019 10:34:05.465,-0.0077,-0.0050,-0.9866, 0.0004,-0.0018, 0.0136,-0.0126,-0.0160,-0.0107,-0.0075, 0.0029,-0.4674
17-Jan-2019 10:34:05.506,-0.0065,-0.0076,-0.9854, 0.0000,-0.0018, 0.0142,-0.0115,-0.0138,-0.0129,-0.0075, 0.0028,-0.4674
17-Jan-2019 10:34:05.544,-0.0088,-0.0051,-0.9850,-0.0003,-0.0015, 0.0137,-0.0105,-0.0149,-0.0107,-0.0075, 0.0028,-0.4674
17-Jan-2019 10:34:05.587,-0.0056,-0.0063,-0.9853, 0.0018,-0.0034, 0.0146,-0.0094,-0.0149,-0.0129,-0.0075, 0.0029,-0.4674
17-Jan-2019 10:34:05.624,-0.0072,-0.0025,-0.9862, 0.0005,-0.0014, 0.0135,-0.0115,-0.0160,-0.0107,-0.0075, 0.0028,-0.4674
17-Jan-2019 10:34:05.663,-0.0055,-0.0048,-0.9861, 0.0012,-0.0021, 0.0134,-0.0126,-0.0138,-0.0118,-0.0075, 0.0028,-0.4674
17-Jan-2019 10:34:05.703,-0.0071,-0.0046,-0.9852, 0.0005,-0.0015, 0.0139,-0.0094,-0.0117,-0.0118,-0.0075, 0.0028,-0.4674
17-Jan-2019 10:34:05.744,-0.0060,-0.0046,-0.9864, 0.0013,-0.0019, 0.0137,-0.0084,-0.0138,-0.0129,-0.0075, 0.0029,-0.4674
17-Jan-2019 10:34:05.783,-0.0078,-0.0035,-0.9859,-0.0003,-0.0017, 0.0136,-0.0115,-0.0138,-0.0129,-0.0075, 0.0028,-0.4674
17-Jan-2019 10:34:05.822,-0.0066,-0.0049,-0.9868, 0.0005,-0.0022, 0.0132,-0.0126,-0.0138,-0.0118,-0.0075, 0.0028,-0.4674
17-Jan-2019 10:34:05.862,-0.0083,-0.0042,-0.9864,-0.0009,-0.0020, 0.0142,-0.0116,-0.0138,-0.0107,-0.0075, 0.0028,-0.4674
17-Jan-2019 10:34:05.902,-0.0076,-0.0050,-0.9854, 0.0002,-0.0017, 0.0142,-0.0094,-0.0138,-0.0118,-0.0075, 0.0028,-0.4674
17-Jan-2019 10:34:05.941,-0.0070,-0.0037,-0.9861, 0.0003,-0.0003, 0.0145,-0.0116,-0.0128,-0.0129,-0.0076, 0.0028,-0.4674
17-Jan-2019 10:34:05.981,-0.0072,-0.0044,-0.9864, 0.0005,-0.0014, 0.0145,-0.0105,-0.0138,-0.0139,-0.0076, 0.0028,-0.4674
17-Jan-2019 10:34:06.021,-0.0071,-0.0040,-0.9856,-0.0004,-0.0004, 0.0146,-0.0084,-0.0149,-0.0118,-0.0076, 0.0029,-0.4675
17-Jan-2019 10:34:06.061,-0.0063,-0.0043,-0.9855, 0.0003,-0.0025, 0.0142,-0.0105,-0.0128,-0.0118,-0.0076, 0.0029,-0.4674
17-Jan-2019 10:34:06.101,-0.0073,-0.0044,-0.9864, 0.0006,-0.0021, 0.0140,-0.0105,-0.0128,-0.0129,-0.0076, 0.0029,-0.4675
17-Jan-2019 10:34:06.140,-0.0073,-0.0053,-0.9851, 0.0003,-0.0023, 0.0147,-0.0105,-0.0128,-0.0129,-0.0075, 0.0029,-0.4675
17-Jan-2019 10:34:06.180,-0.0066,-0.0049,-0.9854,-0.0002,-0.0008, 0.0147,-0.0105,-0.0128,-0.0129,-0.0075, 0.0029,-0.4675
17-Jan-2019 10:34:06.220,-0.0080,-0.0039,-0.9854, 0.0004,-0.0012, 0.0131,-0.0094,-0.0128,-0.0118,-0.0075, 0.0029,-0.4675
17-Jan-2019 10:34:06.259,-0.0072,-0.0047,-0.9853, 0.0004,-0.0028, 0.0140,-0.0105,-0.0138,-0.0118,-0.0075, 0.0029,-0.4675
17-Jan-2019 10:34:06.299,-0.0082,-0.0049,-0.9866, 0.0003,-0.0018, 0.0139,-0.0126,-0.0138,-0.0118,-0.0076, 0.0029,-0.4675
17-Jan-2019 10:34:06.341,-0.0075,-0.0046,-0.9865, 0.0015,-0.0023, 0.0139,-0.0094,-0.0138,-0.0118,-0.0076, 0.0029,-0.4675
17-Jan-2019 10:34:06.378,-0.0069,-0.0044,-0.9872, 0.0005,-0.0016, 0.0134,-0.0094,-0.0138,-0.0129,-0.0076, 0.0029,-0.4675
17-Jan-2019 10:34:06.418,-0.0071,-0.0052,-0.9859, 0.0005,-0.0020, 0.0150,-0.0094,-0.0138,-0.0118,-0.0076, 0.0029,-0.4674
17-Jan-2019 10:34:06.458,-0.0078,-0.0044,-0.9852,-0.0001,-0.0015, 0.0152,-0.0116,-0.0128,-0.0107,-0.0075, 0.0029,-0.4674
17-Jan-2019 10:34:06.499,-0.0084,-0.0054,-0.9858,-0.0003,-0.0020, 0.0142,-0.0094,-0.0149,-0.0129,-0.0075, 0.0029,-0.4674
17-Jan-2019 10:34:06.537,-0.0069,-0.0044,-0.9855, 0.0008,-0.0015, 0.0147,-0.0094,-0.0138,-0.0129,-0.0075, 0.0029,-0.4674
17-Jan-2019 10:34:06.578,-0.0070,-0.0037,-0.9863, 0.0002,-0.0019, 0.0136,-0.0116,-0.0128,-0.0107,-0.0075, 0.0029,-0.4674
17-Jan-2019 10:34:06.618,-0.0074,-0.0047,-0.9851, 0.0005,-0.0020, 0.0145,-0.0105,-0.0128,-0.0129,-0.0075, 0.0029,-0.4674
17-Jan-2019 10:34:06.656,-0.0074,-0.0045,-0.9857, 0.0006,-0.0017, 0.0147,-0.0094,-0.0128,-0.0118,-0.0075, 0.0029,-0.4674
17-Jan-2019 10:34:06.697,-0.0067,-0.0044,-0.9858, 0.0013,-0.0016, 0.0140,-0.0094,-0.0138,-0.0139,-0.0075, 0.0029,-0.4674
17-Jan-2019 10:34:06.736,-0.0077,-0.0040,-0.9862,-0.0003,-0.0015, 0.0131,-0.0094,-0.0138,-0.0118,-0.0075, 0.0029,-0.4674
17-Jan-2019 10:34:06.775,-0.0066,-0.0049,-0.9846, 0.0010,-0.0016, 0.0153,-0.0105,-0.0128,-0.0129,-0.0075, 0.0029,-0.4675
17-Jan-2019 10:34:06.814,-0.0060,-0.0050,-0.9860, 0.0011,-0.0017, 0.0142,-0.0116,-0.0138,-0.0107,-0.0075, 0.0029,-0.4674
17-Jan-2019 10:34:06.854,-0.0071,-0.0049,-0.9858, 0.0009,-0.0012, 0.0144,-0.0105,-0.0138,-0.0118,-0.0075, 0.0029,-0.4674
17-Jan-2019 10:34:06.894,-0.0069,-0.0040,-0.9849, 0.0007,-0.0013, 0.0148,-0.0105,-0.0138,-0.0118,-0.0075, 0.0029,-0.4674
17-Jan-2019 10:34:06.934,-0.0071,-0.0047,-0.9848,-0.0001,-0.0015, 0.0144,-0.0094,-0.0149,-0.0129,-0.0075, 0.0029,-0.4674
17-Jan-2019 10:34:06.974,-0.0069,-0.0039,-0.9856, 0.0004,-0.0013, 0.0137,-0.0105,-0.0138,-0.0107,-0.0075, 0.0029,-0.4674
17-Jan-2019 10:34:07.013,-0.0061,-0.0043,-0.9863, 0.0007,-0.0020, 0.0147,-0.0094,-0.0159,-0.0139,-0.0075, 0.0029,-0.4675
17-Jan-2019 10:34:07.053,-0.0075,-0.0046,-0.9859,-0.0004,-0.0014, 0.0136,-0.0105,-0.0138,-0.0107,-0.0075, 0.0029,-0.4675
17-Jan-2019 10:34:07.093,-0.0068,-0.0043,-0.9867, 0.0010,-0.0016, 0.0144,-0.0105,-0.0128,-0.0118,-0.0075, 0.0029,-0.4675
17-Jan-2019 10:34:07.133,-0.0069,-0.0044,-0.9854,-0.0005,-0.0014, 0.0145,-0.0094,-0.0117,-0.0107,-0.0075, 0.0029,-0.4675
17-Jan-2019 10:34:07.173,-0.0078,-0.0045,-0.9855, 0.0010,-0.0031, 0.0143,-0.0094,-0.0128,-0.0118,-0.0075, 0.0029,-0.4675
17-Jan-2019 10:34:07.213,-0.0069,-0.0051,-0.9852, 0.0000,-0.0009, 0.0144,-0.0105,-0.0138,-0.0118,-0.0075, 0.0029,-0.4675
17-Jan-2019 10:34:07.253,-0.0061,-0.0046,-0.9855, 0.0009,-0.0019, 0.0151,-0.0084,-0.0138,-0.0129,-0.0075, 0.0030,-0.4675
17-Jan-2019 10:34:07.292,-0.0069,-0.0045,-0.9859,-0.0002,-0.0017, 0.0140,-0.0094,-0.0138,-0.0139,-0.0075, 0.0030,-0.4675
17-Jan-2019 10:34:07.335,-0.0070,-0.0038,-0.9860, 0.0006,-0.0011, 0.0143,-0.0116,-0.0138,-0.0118,-0.0075, 0.0030,-0.4675
17-Jan-2019 10:34:07.372,-0.0078,-0.0044,-0.9858, 0.0003,-0.0016, 0.0136,-0.0115,-0.0160,-0.0118,-0.0076, 0.0030,-0.4675
17-Jan-2019 10:34:07.411,-0.0068,-0.0046,-0.9861, 0.0010,-0.0021, 0.0151,-0.0083,-0.0149,-0.0129,-0.0076, 0.0030,-0.4675
17-Jan-2019 10:34:07.450,-0.0077,-0.0045,-0.9863, 0.0006,-0.0015, 0.0140,-0.0094,-0.0149,-0.0129,-0.0076, 0.0030,-0.4675
17-Jan-2019 10:34:07.491,-0.0077,-0.0046,-0.9846, 0.0002,-0.0008, 0.0130,-0.0094,-0.0149,-0.0118,-0.0075, 0.0030,-0.4675
17-Jan-2019 10:34:07.530,-0.0075,-0.0045,-0.9857, 0.0012,-0.0018, 0.0138,-0.0094,-0.0138,-0.0129,-0.0076, 0.0030,-0.4675
17-Jan-2019 10:34:07.571,-0.0066,-0.0041,-0.9864, 0.0007,-0.0018, 0.0149,-0.0094,-0.0149,-0.0118,-0.0076, 0.0030,-0.4675
17-Jan-2019 10:34:07.610,-0.0071,-0.0044,-0.9850,-0.0003,-0.0014, 0.0137,-0.0116,-0.0138,-0.0107,-0.0075, 0.0030,-0.4675
17-Jan-2019 10:34:07.649,-0.0080,-0.0040,-0.9858, 0.0007,-0.0017, 0.0133,-0.0094,-0.0138,-0.0129,-0.0076, 0.0030,-0.4674
17-Jan-2019 10:34:07.690,-0.0064,-0.0046,-0.9862, 0.0014,-0.0020, 0.0162,-0.0105,-0.0128,-0.0129,-0.0075, 0.0030,-0.4675
17-Jan-2019 10:34:07.729,-0.0080,-0.0047,-0.9848, 0.0006,-0.0007, 0.0130,-0.0094,-0.0138,-0.0118,-0.0076, 0.0030,-0.4675
17-Jan-2019 10:34:07.771,-0.0069,-0.0044,-0.9856,-0.0006,-0.0019, 0.0141,-0.0105,-0.0138,-0.0129,-0.0076, 0.0030,-0.4675
17-Jan-2019 10:34:07.809,-0.0071,-0.0047,-0.9858, 0.0006,-0.0018, 0.0145,-0.0084,-0.0128,-0.0118,-0.0076, 0.0030,-0.4675
17-Jan-2019 10:34:07.849,-0.0069,-0.0045,-0.9852, 0.0005,-0.0015, 0.0128,-0.0105,-0.0149,-0.0129,-0.0076, 0.0030,-0.4675
17-Jan-2019 10:34:07.888,-0.0070,-0.0045,-0.9865, 0.0003,-0.0021, 0.0131,-0.0115,-0.0149,-0.0118,-0.0076, 0.0030,-0.4675
17-Jan-2019 10:34:07.928,-0.0079,-0.0041,-0.9869,-0.0000,-0.0014, 0.0150,-0.0116,-0.0128,-0.0118,-0.0075, 0.0030,-0.4675
17-Jan-2019 10:34:07.971,-0.0071,-0.0047,-0.9846, 0.0004,-0.0017, 0.0153,-0.0094,-0.0117,-0.0129,-0.0075, 0.0030,-0.4675
17-Jan-2019 10:34:08.007,-0.0065,-0.0049,-0.9854, 0.0004,-0.0014, 0.0124,-0.0084,-0.0149,-0.0118,-0.0075, 0.0030,-0.4675
17-Jan-2019 10:34:08.047,-0.0059,-0.0047,-0.9876, 0.0000,-0.0022, 0.0154,-0.0105,-0.0149,-0.0107,-0.0075, 0.0030,-0.4675
17-Jan-2019 10:34:08.087,-0.0071,-0.0046,-0.9862, 0.0003,-0.0013, 0.0153,-0.0094,-0.0128,-0.0118,-0.0075, 0.0030,-0.4675
17-Jan-2019 10:34:08.127,-0.0073,-0.0042,-0.9847, 0.0007,-0.0010, 0.0123,-0.0105,-0.0128,-0.0118,-0.0075, 0.0030,-0.4675
17-Jan-2019 10:34:08.168,-0.0076,-0.0049,-0.9860, 0.0005,-0.0017, 0.0147,-0.0115,-0.0138,-0.0129,-0.0075, 0.0030,-0.4675
17-Jan-2019 10:34:08.206,-0.0060,-0.0057,-0.9905, 0.0004,-0.0016, 0.0110,-0.0105,-0.0128,-0.0118,-0.0076, 0.0030,-0.4675
17-Jan-2019 10:34:08.245,-0.0070,-0.0035,-1.0491,-0.0042,-0.0037,-0.0448,-0.0084,-0.0128,-0.0118,-0.0076, 0.0030,-0.4675
17-Jan-2019 10:34:08.285,-0.0090,-0.0052,-1.0825,-0.0018,-0.0039,-0.0881,-0.0084,-0.0138,-0.0129,-0.0077, 0.0030,-0.4675
17-Jan-2019 10:34:08.325,-0.0086,-0.0051,-1.0904,-0.0026,-0.0005,-0.0988,-0.0105,-0.0138,-0.0129,-0.0077, 0.0030,-0.4675
17-Jan-2019 10:34:08.365,-0.0072,-0.0047,-1.0933,-0.0018,-0.0027,-0.0989,-0.0116,-0.0138,-0.0118,-0.0077, 0.0030,-0.4675
17-Jan-2019 10:34:08.405,-0.0062,-0.0067,-1.0968, 0.0007,-0.0023,-0.0905,-0.0105,-0.0128,-0.0118,-0.0076, 0.0030,-0.4675
17-Jan-2019 10:34:08.444,-0.0065,-0.0050,-1.0840,-0.0010,-0.0023,-0.0927,-0.0105,-0.0128,-0.0107,-0.0076, 0.0030,-0.4675
17-Jan-2019 10:34:08.484,-0.0053,-0.0029,-1.0885,-0.0037,-0.0003,-0.0921,-0.0094,-0.0128,-0.0129,-0.0076, 0.0030,-0.4675
17-Jan-2019 10:34:08.523,-0.0093,-0.0035,-1.0943,-0.0039,-0.0051,-0.0895,-0.0084,-0.0138,-0.0129,-0.0076, 0.0030,-0.4675
17-Jan-2019 10:34:08.564,-0.0093,-0.0071,-1.1007,-0.0053,-0.0057,-0.0909,-0.0105,-0.0106,-0.0107,-0.0076, 0.0030,-0.4675
17-Jan-2019 10:34:08.605,-0.0102,-0.0083,-1.0972,-0.0031,-0.0047,-0.1037,-0.0094,-0.0138,-0.0118,-0.0076, 0.0030,-0.4675
17-Jan-2019 10:34:08.643,-0.0111,-0.0071,-1.1065,-0.0014,-0.0003,-0.1065,-0.0084,-0.0096,-0.0118,-0.0076, 0.0030,-0.4675
17-Jan-2019 10:34:08.683,-0.0076,-0.0024,-1.1159,-0.0012,-0.0018,-0.1038,-0.0105,-0.0160,-0.0129,-0.0077, 0.0030,-0.4675
17-Jan-2019 10:34:08.723,-0.0096,-0.0035,-1.1161, 0.0009,-0.0022,-0.1124,-0.0105,-0.0096,-0.0118,-0.0077, 0.0030,-0.4675
17-Jan-2019 10:34:08.763,-0.0095,-0.0068,-1.1114,-0.0007,-0.0016,-0.1182,-0.0094,-0.0149,-0.0118,-0.0077, 0.0030,-0.4675
17-Jan-2019 10:34:08.802,-0.0096,-0.0061,-1.1157, 0.0011,-0.0021,-0.1187,-0.0126,-0.0170,-0.0118,-0.0077, 0.0030,-0.4675
17-Jan-2019 10:34:08.842,-0.0083,-0.0040,-1.1116,-0.0006,-0.0029,-0.1051,-0.0094,-0.0138,-0.0118,-0.0077, 0.0030,-0.4675
17-Jan-2019 10:34:08.882,-0.0065,-0.0049,-1.0881, 0.0003,-0.0044,-0.0907,-0.0094,-0.0138,-0.0107,-0.0077, 0.0030,-0.4675
17-Jan-2019 10:34:08.921,-0.0099,-0.0049,-1.0481, 0.0000,-0.0005,-0.0687,-0.0094,-0.0106,-0.0118,-0.0077, 0.0030,-0.4675
17-Jan-2019 10:34:08.961,-0.0088,-0.0006,-1.0164,-0.0001,-0.0007,-0.0264,-0.0105,-0.0149,-0.0129,-0.0077, 0.0029,-0.4674
17-Jan-2019 10:34:09.000,-0.0069,-0.0036,-0.9861, 0.0002,-0.0027, 0.0164,-0.0094,-0.0128,-0.0118,-0.0076, 0.0029,-0.4674
17-Jan-2019 10:34:09.040,-0.0058,-0.0054,-0.9617, 0.0004,-0.0018, 0.0333,-0.0116,-0.0117,-0.0107,-0.0076, 0.0029,-0.4674
17-Jan-2019 10:34:09.080,-0.0058,-0.0069,-1.0184, 0.0009,-0.0033,-0.0055,-0.0105,-0.0170,-0.0118,-0.0077, 0.0029,-0.4674
17-Jan-2019 10:34:09.120,-0.0095,-0.0008,-1.0333,-0.0039,-0.0008,-0.0388,-0.0084,-0.0117,-0.0128,-0.0077, 0.0029,-0.4675
17-Jan-2019 10:34:09.160,-0.0108,-0.0068,-1.0452,-0.0032,-0.0020,-0.0365,-0.0126,-0.0128,-0.0118,-0.0077, 0.0029,-0.4675
17-Jan-2019 10:34:09.199,-0.0069,-0.0029,-1.0116, 0.0005, 0.0016,-0.0203,-0.0105,-0.0096,-0.0107,-0.0076, 0.0029,-0.4674
17-Jan-2019 10:34:09.239,-0.0088,-0.0036,-0.9834,-0.0020,-0.0007, 0.0017,-0.0115,-0.0170,-0.0118,-0.0077, 0.0029,-0.4674
17-Jan-2019 10:34:09.279,-0.0091,-0.0025,-0.9595,-0.0006,-0.0006, 0.0331,-0.0073,-0.0096,-0.0128,-0.0076, 0.0029,-0.4675
17-Jan-2019 10:34:09.318,-0.0078,-0.0056,-0.9485, 0.0001,-0.0033, 0.0545,-0.0094,-0.0128,-0.0107,-0.0076, 0.0029,-0.4675
17-Jan-2019 10:34:09.358,-0.0087,-0.0045,-0.9500,-0.0011,-0.0007, 0.0467,-0.0105,-0.0117,-0.0139,-0.0076, 0.0029,-0.4675
17-Jan-2019 10:34:09.398,-0.0082,-0.0026,-0.9681,-0.0023,-0.0015, 0.0290,-0.0105,-0.0170,-0.0118,-0.0076, 0.0029,-0.4675
17-Jan-2019 10:34:09.437,-0.0093,-0.0061,-0.9977,-0.0005,-0.0021, 0.0124,-0.0094,-0.0138,-0.0129,-0.0076, 0.0029,-0.4675
17-Jan-2019 10:34:09.477,-0.0129,-0.0019,-1.0150,-0.0018,-0.0004,-0.0063,-0.0115,-0.0149,-0.0118,-0.0077, 0.0029,-0.4675
17-Jan-2019 10:34:09.517,-0.0076,-0.0062,-1.0112, 0.0018,-0.0027,-0.0194,-0.0094,-0.0149,-0.0107,-0.0076, 0.0029,-0.4675
17-Jan-2019 10:34:09.559,-0.0073,-0.0023,-1.0061, 0.0021,-0.0008,-0.0138,-0.0105,-0.0117,-0.0139,-0.0076, 0.0029,-0.4675
17-Jan-2019 10:34:09.598,-0.0087,-0.0053,-0.9948,-0.0015,-0.0021, 0.0059,-0.0116,-0.0128,-0.0118,-0.0076, 0.0028,-0.4675
17-Jan-2019 10:34:09.636,-0.0080,-0.0044,-0.9755,-0.0006,-0.0013, 0.0256,-0.0116,-0.0117,-0.0118,-0.0076, 0.0028,-0.4675
17-Jan-2019 10:34:09.675,-0.0087,-0.0049,-0.9615,-0.0017,-0.0036, 0.0329,-0.0116,-0.0138,-0.0107,-0.0076, 0.0028,-0.4675
17-Jan-2019 10:34:09.715,-0.0104,-0.0032,-0.9641,-0.0017,-0.0013, 0.0345,-0.0105,-0.0117,-0.0129,-0.0076, 0.0027,-0.4675
17-Jan-2019 10:34:09.755,-0.0071,-0.0041,-0.9802, 0.0012,-0.0028, 0.0350,-0.0115,-0.0170,-0.0118,-0.0077, 0.0027,-0.4675
17-Jan-2019 10:34:09.795,-0.0098,-0.0045,-0.9872, 0.0014,-0.0009, 0.0191,-0.0105,-0.0117,-0.0118,-0.0077, 0.0027,-0.4675
17-Jan-2019 10:34:09.835,-0.0071,-0.0049,-0.9969, 0.0000,-0.0026, 0.0027,-0.0105,-0.0138,-0.0118,-0.0077, 0.0027,-0.4676
17-Jan-2019 10:34:09.876,-0.0078,-0.0053,-1.0025, 0.0003,-0.0031,-0.0018,-0.0116,-0.0128,-0.0118,-0.0077, 0.0027,-0.4676
17-Jan-2019 10:34:09.915,-0.0098,-0.0023,-1.0040,-0.0019,-0.0016, 0.0034,-0.0126,-0.0117,-0.0107,-0.0077, 0.0027,-0.4675
17-Jan-2019 10:34:09.956,-0.0082,-0.0065,-0.9908, 0.0006,-0.0009, 0.0057,-0.0126,-0.0138,-0.0118,-0.0077, 0.0026,-0.4675
17-Jan-2019 10:34:09.995,-0.0081,-0.0037,-0.9794,-0.0000,-0.0021, 0.0140,-0.0094,-0.0159,-0.0129,-0.0077, 0.0027,-0.4676
17-Jan-2019 10:34:10.035,-0.0094,-0.0031,-0.9788,-0.0022,-0.0002, 0.0253,-0.0105,-0.0149,-0.0129,-0.0078, 0.0027,-0.4676
17-Jan-2019 10:34:10.074,-0.0068,-0.0054,-0.9760, 0.0020,-0.0027, 0.0314,-0.0116,-0.0128,-0.0107,-0.0077, 0.0026,-0.4676
17-Jan-2019 10:34:10.113,-0.0081,-0.0020,-0.9749, 0.0008,-0.0004, 0.0249,-0.0105,-0.0149,-0.0118,-0.0078, 0.0026,-0.4676
17-Jan-2019 10:34:10.154,-0.0073,-0.0045,-0.9822,-0.0015,-0.0016, 0.0136,-0.0094,-0.0117,-0.0118,-0.0077, 0.0026,-0.4676
17-Jan-2019 10:34:10.193,-0.0063,-0.0032,-0.9973, 0.0021,-0.0010, 0.0081,-0.0084,-0.0138,-0.0118,-0.0078, 0.0026,-0.4675
17-Jan-2019 10:34:10.233,-0.0092,-0.0046,-1.0000,-0.0011,-0.0016, 0.0076,-0.0105,-0.0128,-0.0097,-0.0078, 0.0026,-0.4675
17-Jan-2019 10:34:10.272,-0.0067,-0.0034,-0.9949,-0.0010,-0.0017,-0.0000,-0.0126,-0.0138,-0.0118,-0.0078, 0.0026,-0.4675
17-Jan-2019 10:34:10.313,-0.0088,-0.0045,-0.9899,-0.0014,-0.0015, 0.0045,-0.0094,-0.0128,-0.0107,-0.0077, 0.0026,-0.4675
17-Jan-2019 10:34:10.352,-0.0077,-0.0046,-0.9886, 0.0019,-0.0006, 0.0177,-0.0116,-0.0138,-0.0118,-0.0078, 0.0026,-0.4675
17-Jan-2019 10:34:10.391,-0.0074,-0.0038,-0.9773, 0.0014,-0.0018, 0.0244,-0.0105,-0.0117,-0.0118,-0.0078, 0.0026,-0.4675
17-Jan-2019 10:34:10.431,-0.0069,-0.0049,-0.9737, 0.0008,-0.0008, 0.0210,-0.0094,-0.0138,-0.0118,-0.0078, 0.0026,-0.4675
17-Jan-2019 10:34:10.472,-0.0079,-0.0040,-0.9769,-0.0002,-0.0021, 0.0212,-0.0115,-0.0160,-0.0118,-0.0078, 0.0026,-0.4675
17-Jan-2019 10:34:10.511,-0.0064,-0.0051,-0.9840, 0.0016, 0.0000, 0.0232,-0.0094,-0.0138,-0.0118,-0.0077, 0.0026,-0.4675
17-Jan-2019 10:34:10.550,-0.0081,-0.0030,-0.9877, 0.0008,-0.0020, 0.0142,-0.0116,-0.0128,-0.0118,-0.0077, 0.0026,-0.4675
17-Jan-2019 10:34:10.590,-0.0068,-0.0056,-0.9933, 0.0005,-0.0012, 0.0003,-0.0094,-0.0117,-0.0129,-0.0077, 0.0026,-0.4675
17-Jan-2019 10:34:10.631,-0.0092,-0.0036,-0.9975, 0.0006,-0.0003, 0.0059,-0.0115,-0.0149,-0.0118,-0.0077, 0.0025,-0.4674
17-Jan-2019 10:34:10.670,-0.0078,-0.0050,-0.9949, 0.0008,-0.0037, 0.0105,-0.0105,-0.0160,-0.0097,-0.0077, 0.0025,-0.4674
17-Jan-2019 10:34:10.709,-0.0083,-0.0024,-0.9838, 0.0010, 0.0003, 0.0097,-0.0116,-0.0117,-0.0118,-0.0077, 0.0025,-0.4674
17-Jan-2019 10:34:10.750,-0.0060,-0.0038,-0.9819,-0.0000,-0.0023, 0.0150,-0.0084,-0.0138,-0.0107,-0.0077, 0.0025,-0.4674
17-Jan-2019 10:34:10.790,-0.0085,-0.0038,-0.9798, 0.0001,-0.0019, 0.0235,-0.0116,-0.0128,-0.0118,-0.0077, 0.0025,-0.4674
17-Jan-2019 10:34:10.829,-0.0077,-0.0039,-0.9812,-0.0008,-0.0022, 0.0265,-0.0105,-0.0149,-0.0097,-0.0077, 0.0025,-0.4674
17-Jan-2019 10:34:10.869,-0.0088,-0.0033,-0.9779, 0.0010,-0.0005, 0.0190,-0.0116,-0.0138,-0.0107,-0.0076, 0.0025,-0.4673
17-Jan-2019 10:34:10.909,-0.0055,-0.0049,-0.9835, 0.0007,-0.0002, 0.0103,-0.0084,-0.0106,-0.0118,-0.0076, 0.0025,-0.4673
17-Jan-2019 10:34:10.949,-0.0083,-0.0053,-0.9968,-0.0008,-0.0022, 0.0154,-0.0105,-0.0138,-0.0129,-0.0077, 0.0025,-0.4673
17-Jan-2019 10:34:10.987,-0.0093,-0.0019,-0.9941, 0.0006,-0.0018, 0.0125,-0.0115,-0.0160,-0.0118,-0.0077, 0.0024,-0.4673
17-Jan-2019 10:34:11.028,-0.0066,-0.0039,-0.9857, 0.0012,-0.0034, 0.0033,-0.0105,-0.0138,-0.0118,-0.0077, 0.0025,-0.4673
17-Jan-2019 10:34:11.068,-0.0065,-0.0044,-0.9851, 0.0006,-0.0006, 0.0083,-0.0094,-0.0128,-0.0118,-0.0077, 0.0025,-0.4673
17-Jan-2019 10:34:11.107,-0.0072,-0.0049,-0.9861, 0.0005,-0.0009, 0.0173,-0.0094,-0.0128,-0.0118,-0.0077, 0.0025,-0.4673
17-Jan-2019 10:34:11.148,-0.0083,-0.0031,-0.9845, 0.0018,-0.0017, 0.0228,-0.0115,-0.0202,-0.0118,-0.0077, 0.0025,-0.4672
17-Jan-2019 10:34:11.187,-0.0081,-0.0022,-0.9763, 0.0009,-0.0024, 0.0162,-0.0084,-0.0149,-0.0118,-0.0077, 0.0025,-0.4673
17-Jan-2019 10:34:11.227,-0.0056,-0.0055,-0.9807, 0.0012,-0.0019, 0.0119,-0.0094,-0.0117,-0.0129,-0.0077, 0.0025,-0.4673
17-Jan-2019 10:34:11.266,-0.0074,-0.0051,-0.9885, 0.0009, 0.0007, 0.0167,-0.0094,-0.0117,-0.0118,-0.0077, 0.0025,-0.4673
17-Jan-2019 10:34:11.306,-0.0076,-0.0047,-0.9937,-0.0005,-0.0016, 0.0137,-0.0105,-0.0149,-0.0118,-0.0077, 0.0025,-0.4673
17-Jan-2019 10:34:11.345,-0.0080,-0.0025,-0.9888,-0.0001,-0.0023, 0.0071,-0.0094,-0.0170,-0.0118,-0.0077, 0.0025,-0.4673
17-Jan-2019 10:34:11.386,-0.0055,-0.0037,-0.9908, 0.0007, 0.0002, 0.0053,-0.0094,-0.0138,-0.0129,-0.0077, 0.0025,-0.4673
17-Jan-2019 10:34:11.426,-0.0093,-0.0047,-0.9894,-0.0023,-0.0017, 0.0146,-0.0095,-0.0096,-0.0118,-0.0077, 0.0025,-0.4673
17-Jan-2019 10:34:11.465,-0.0077,-0.0045,-0.9856, 0.0016,-0.0008, 0.0219,-0.0126,-0.0160,-0.0139,-0.0077, 0.0025,-0.4673
17-Jan-2019 10:34:11.505,-0.0073,-0.0029,-0.9784, 0.0012,-0.0016, 0.0177,-0.0115,-0.0128,-0.0139,-0.0077, 0.0025,-0.4673
17-Jan-2019 10:34:11.547,-0.0077,-0.0042,-0.9813,-0.0003,-0.0015, 0.0162,-0.0105,-0.0160,-0.0129,-0.0077, 0.0025,-0.4674
17-Jan-2019 10:34:11.585,-0.0077,-0.0040,-0.9865, 0.0017, 0.0002, 0.0177,-0.0115,-0.0170,-0.0118,-0.0077, 0.0025,-0.4674
17-Jan-2019 10:34:11.624,-0.0078,-0.0030,-0.9837, 0.0012,-0.0018, 0.0149,-0.0115,-0.0160,-0.0129,-0.0078, 0.0025,-0.4674
17-Jan-2019 10:34:11.663,-0.0070,-0.0038,-0.9884, 0.0014,-0.0020, 0.0086,-0.0126,-0.0170,-0.0118,-0.0078, 0.0026,-0.4674
17-Jan-2019 10:34:11.702,-0.0085,-0.0048,-0.9913,-0.0007,-0.0002, 0.0068,-0.0095,-0.0085,-0.0107,-0.0078, 0.0026,-0.4674
17-Jan-2019 10:34:11.744,-0.0068,-0.0049,-0.9930,-0.0001,-0.0022, 0.0131,-0.0115,-0.0149,-0.0129,-0.0077, 0.0026,-0.4674
17-Jan-2019 10:34:11.781,-0.0077,-0.0023,-0.9851, 0.0034,-0.0000, 0.0123,-0.0137,-0.0149,-0.0118,-0.0077, 0.0026,-0.4674
17-Jan-2019 10:34:11.821,-0.0065,-0.0045,-0.9834, 0.0008,-0.0023, 0.0136,-0.0094,-0.0128,-0.0118,-0.0077, 0.0026,-0.4674
17-Jan-2019 10:34:11.862,-0.0064,-0.0041,-0.9854, 0.0009,-0.0007, 0.0156,-0.0084,-0.0117,-0.0118,-0.0077, 0.0026,-0.4674
17-Jan-2019 10:34:11.902,-0.0085,-0.0034,-0.9861,-0.0001,-0.0006, 0.0178,-0.0116,-0.0138,-0.0118,-0.0077, 0.0026,-0.4675
17-Jan-2019 10:34:11.942,-0.0073,-0.0044,-0.9835, 0.0010,-0.0027, 0.0153,-0.0094,-0.0138,-0.0118,-0.0077, 0.0026,-0.4675
17-Jan-2019 10:34:11.982,-0.0087,-0.0034,-0.9850, 0.0007,-0.0017, 0.0121,-0.0105,-0.0138,-0.0118,-0.0077, 0.0027,-0.4675
17-Jan-2019 10:34:12.022,-0.0074,-0.0032,-0.9878,-0.0015,-0.0010, 0.0150,-0.0105,-0.0128,-0.0129,-0.0077, 0.0027,-0.4675
17-Jan-2019 10:34:12.060,-0.0071,-0.0042,-0.9876, 0.0019,-0.0022, 0.0136,-0.0094,-0.0149,-0.0118,-0.0077, 0.0027,-0.4675
17-Jan-2019 10:34:12.100,-0.0085,-0.0028,-0.9856, 0.0010,-0.0017, 0.0120,-0.0115,-0.0160,-0.0129,-0.0077, 0.0027,-0.4675
17-Jan-2019 10:34:12.142,-0.0066,-0.0046,-0.9846, 0.0007,-0.0017, 0.0116,-0.0105,-0.0128,-0.0118,-0.0077, 0.0027,-0.4675
17-Jan-2019 10:34:12.180,-0.0069,-0.0039,-0.9895,-0.0000,-0.0013, 0.0145,-0.0115,-0.0128,-0.0139,-0.0077, 0.0027,-0.4675
17-Jan-2019 10:34:12.220,-0.0088,-0.0055,-0.9872,-0.0006,-0.0010, 0.0128,-0.0115,-0.0138,-0.0129,-0.0076, 0.0027,-0.4676
17-Jan-2019 10:34:12.260,-0.0078,-0.0040,-0.9864, 0.0005,-0.0033, 0.0102,-0.0094,-0.0149,-0.0118,-0.0076, 0.0027,-0.4676
17-Jan-2019 10:34:12.299,-0.0070,-0.0030,-0.9807, 0.0005,-0.0020, 0.0190,-0.0105,-0.0128,-0.0118,-0.0076, 0.0027,-0.4676
17-Jan-2019 10:34:12.343,-0.0083,-0.0027,-0.9801,-0.0007,-0.0000, 0.0199,-0.0116,-0.0138,-0.0107,-0.0076, 0.0027,-0.4676
17-Jan-2019 10:34:12.378,-0.0074,-0.0052,-0.9860, 0.0015,-0.0022, 0.0157,-0.0094,-0.0128,-0.0118,-0.0076, 0.0028,-0.4676
17-Jan-2019 10:34:12.419,-0.0083,-0.0021,-0.9906, 0.0003,-0.0011, 0.0103,-0.0105,-0.0170,-0.0118,-0.0076, 0.0028,-0.4676
17-Jan-2019 10:34:12.456,-0.0076,-0.0051,-0.9885,-0.0005,-0.0012, 0.0104,-0.0094,-0.0106,-0.0128,-0.0075, 0.0028,-0.4676
17-Jan-2019 10:34:12.496,-0.0048,-0.0045,-0.9895, 0.0010,-0.0013, 0.0130,-0.0105,-0.0170,-0.0129,-0.0075, 0.0028,-0.4676
17-Jan-2019 10:34:12.536,-0.0092,-0.0029,-0.9853, 0.0009,-0.0009, 0.0132,-0.0105,-0.0138,-0.0118,-0.0075, 0.0028,-0.4676
17-Jan-2019 10:34:12.576,-0.0074,-0.0037,-0.9851,-0.0023, 0.0005, 0.0142,-0.0084,-0.0128,-0.0107,-0.0075, 0.0028,-0.4676
17-Jan-2019 10:34:12.617,-0.0071,-0.0051,-0.9850, 0.0017,-0.0016, 0.0146,-0.0105,-0.0138,-0.0118,-0.0075, 0.0028,-0.4676
17-Jan-2019 10:34:12.657,-0.0083,-0.0044,-0.9845, 0.0004,-0.0005, 0.0171,-0.0084,-0.0138,-0.0118,-0.0075, 0.0028,-0.4676
17-Jan-2019 10:34:12.697,-0.0054,-0.0033,-0.9844, 0.0011,-0.0015, 0.0186,-0.0105,-0.0160,-0.0107,-0.0075, 0.0028,-0.4676
17-Jan-2019 10:34:12.737,-0.0091,-0.0044,-0.9852, 0.0016, 0.0000, 0.0137,-0.0105,-0.0128,-0.0118,-0.0075, 0.0029,-0.4676
17-Jan-2019 10:34:12.775,-0.0065,-0.0038,-0.9875,-0.0015,-0.0008, 0.0144,-0.0084,-0.0127,-0.0128,-0.0075, 0.0029,-0.4676
17-Jan-2019 10:34:12.816,-0.0067,-0.0033,-0.9891, 0.0020,-0.0008, 0.0121,-0.0105,-0.0128,-0.0129,-0.0075, 0.0029,-0.4676
17-Jan-2019 10:34:12.856,-0.0084,-0.0040,-0.9880,-0.0012,-0.0001, 0.0109,-0.0105,-0.0117,-0.0129,-0.0075, 0.0029,-0.4677
17-Jan-2019 10:34:12.895,-0.0072,-0.0046,-0.9881, 0.0004,-0.0017, 0.0102,-0.0083,-0.0149,-0.0129,-0.0075, 0.0030,-0.4677
17-Jan-2019 10:34:12.934,-0.0072,-0.0045,-0.9852,-0.0005, 0.0005, 0.0149,-0.0094,-0.0117,-0.0118,-0.0075, 0.0030,-0.4677
17-Jan-2019 10:34:12.974,-0.0064,-0.0039,-0.9840,-0.0004,-0.0021, 0.0191,-0.0094,-0.0149,-0.0118,-0.0075, 0.0030,-0.4677
17-Jan-2019 10:34:13.013,-0.0075,-0.0042,-0.9811, 0.0004, 0.0006, 0.0169,-0.0094,-0.0160,-0.0118,-0.0075, 0.0030,-0.4677
17-Jan-2019 10:34:13.053,-0.0068,-0.0040,-0.9836,-0.0005,-0.0025, 0.0120,-0.0116,-0.0107,-0.0097,-0.0074, 0.0030,-0.4677
17-Jan-2019 10:34:13.093,-0.0062,-0.0053,-0.9877,-0.0001, 0.0001, 0.0139,-0.0084,-0.0149,-0.0107,-0.0075, 0.0031,-0.4677
17-Jan-2019 10:34:13.134,-0.0070,-0.0029,-0.9888, 0.0005,-0.0017, 0.0147,-0.0094,-0.0149,-0.0129,-0.0075, 0.0031,-0.4677
17-Jan-2019 10:34:13.173,-0.0091,-0.0034,-0.9870,-0.0009,-0.0026, 0.0108,-0.0105,-0.0160,-0.0129,-0.0075, 0.0031,-0.4677
17-Jan-2019 10:34:13.213,-0.0062,-0.0041,-0.9867, 0.0003,-0.0002, 0.0119,-0.0105,-0.0149,-0.0129,-0.0074, 0.0031,-0.4677
17-Jan-2019 10:34:13.253,-0.0076,-0.0028,-0.9870, 0.0006,-0.0011, 0.0143,-0.0105,-0.0117,-0.0129,-0.0074, 0.0032,-0.4677
17-Jan-2019 10:34:13.292,-0.0091,-0.0032,-0.9844, 0.0006, 0.0003, 0.0162,-0.0105,-0.0138,-0.0118,-0.0074, 0.0032,-0.4677
17-Jan-2019 10:34:13.345,-0.0082,-0.0007,-0.9814, 0.0015,-0.0013, 0.0204,-0.0084,-0.0127,-0.0128,-0.0074, 0.0032,-0.4677
17-Jan-2019 10:34:13.371,-0.0083,-0.0059,-0.9786,-0.0058, 0.0034, 0.0177,-0.0084,-0.0074,-0.0128,-0.0074, 0.0032,-0.4677
17-Jan-2019 10:34:13.411,-0.0086, 0.0007,-0.9872,-0.0036, 0.0045, 0.0115,-0.0094,-0.0106,-0.0128,-0.0074, 0.0032,-0.4677
17-Jan-2019 10:34:13.450,-0.0116,-0.0041,-0.9913,-0.0047, 0.0013, 0.0063,-0.0084,-0.0096,-0.0118,-0.0074, 0.0032,-0.4677
17-Jan-2019 10:34:13.490,-0.0086,-0.0016,-0.9904,-0.0037, 0.0015, 0.0042,-0.0084,-0.0117,-0.0118,-0.0074, 0.0032,-0.4677
17-Jan-2019 10:34:13.531,-0.0059,-0.0032,-0.9879,-0.0009, 0.0029, 0.0089,-0.0126,-0.0106,-0.0139,-0.0074, 0.0032,-0.4677
17-Jan-2019 10:34:13.571,-0.0093,-0.0007,-0.9826,-0.0057,-0.0000, 0.0151,-0.0094,-0.0117,-0.0118,-0.0074, 0.0032,-0.4677
17-Jan-2019 10:34:13.611,-0.0051,-0.0009,-0.9799,-0.0029,-0.0002, 0.0199,-0.0116,-0.0128,-0.0129,-0.0074, 0.0032,-0.4677
17-Jan-2019 10:34:13.650,-0.0102,-0.0017,-0.9737,-0.0050,-0.0027, 0.0194,-0.0094,-0.0106,-0.0118,-0.0074, 0.0032,-0.4677
17-Jan-2019 10:34:13.689,-0.0057,-0.0036,-0.9768,-0.0032,-0.0023, 0.0212,-0.0095,-0.0085,-0.0118,-0.0073, 0.0032,-0.4677
17-Jan-2019 10:34:13.730,-0.0086,-0.0027,-0.9839,-0.0027,-0.0030, 0.0204,-0.0094,-0.0138,-0.0129,-0.0074, 0.0033,-0.4677
17-Jan-2019 10:34:13.768,-0.0095,-0.0031,-0.9868,-0.0017,-0.0028, 0.0146,-0.0084,-0.0138,-0.0118,-0.0074, 0.0033,-0.4677
17-Jan-2019 10:34:13.808,-0.0084,-0.0041,-0.9893,-0.0025,-0.0028, 0.0069,-0.0084,-0.0127,-0.0128,-0.0074, 0.0033,-0.4677
17-Jan-2019 10:34:13.848,-0.0093,-0.0075,-0.9926,-0.0040,-0.0007, 0.0077,-0.0116,-0.0106,-0.0118,-0.0074, 0.0033,-0.4677
17-Jan-2019 10:34:13.887,-0.0084,-0.0002,-0.9944,-0.0011, 0.0008, 0.0135,-0.0126,-0.0149,-0.0118,-0.0074, 0.0033,-0.4677
17-Jan-2019 10:34:13.927,-0.0089,-0.0072,-0.9888, 0.0003,-0.0033, 0.0137,-0.0105,-0.0106,-0.0118,-0.0073, 0.0032,-0.4677
17-Jan-2019 10:34:13.967,-0.0067,-0.0023,-0.9838,-0.0014, 0.0005, 0.0123,-0.0094,-0.0117,-0.0139,-0.0073, 0.0032,-0.4677
17-Jan-2019 10:34:14.008,-0.0069,-0.0076,-0.9844,-0.0002, 0.0002, 0.0165,-0.0094,-0.0128,-0.0129,-0.0073, 0.0033,-0.4677
17-Jan-2019 10:34:14.047,-0.0076,-0.0036,-0.9863,-0.0021, 0.0033, 0.0199,-0.0105,-0.0117,-0.0139,-0.0072, 0.0033,-0.4677
17-Jan-2019 10:34:14.086,-0.0077,-0.0044,-0.9866, 0.0001,-0.0029, 0.0222,-0.0115,-0.0160,-0.0118,-0.0072, 0.0033,-0.4678
17-Jan-2019 10:34:14.126,-0.0058,-0.0034,-0.9826, 0.0003,-0.0023, 0.0150,-0.0094,-0.0149,-0.0118,-0.0072, 0.0033,-0.4678
17-Jan-2019 10:34:14.166,-0.0091,-0.0051,-0.9829,-0.0013, 0.0005, 0.0123,-0.0094,-0.0106,-0.0139,-0.0072, 0.0033,-0.4678
17-Jan-2019 10:34:14.205,-0.0059,-0.0052,-0.9937,-0.0005, 0.0010, 0.0114,-0.0105,-0.0117,-0.0118,-0.0072, 0.0033,-0.4678
17-Jan-2019 10:34:14.246,-0.0082,-0.0045,-0.9924,-0.0018,-0.0012, 0.0123,-0.0105,-0.0138,-0.0118,-0.0071, 0.0032,-0.4678
17-Jan-2019 10:34:14.285,-0.0078,-0.0037,-0.9877,-0.0016,-0.0012, 0.0086,-0.0094,-0.0128,-0.0107,-0.0071, 0.0033,-0.4678
17-Jan-2019 10:34:14.326,-0.0077,-0.0046,-0.9857,-0.0009,-0.0002, 0.0101,-0.0094,-0.0138,-0.0118,-0.0071, 0.0033,-0.4678
17-Jan-2019 10:34:14.364,-0.0086,-0.0044,-0.9888,-0.0003, 0.0003, 0.0144,-0.0094,-0.0138,-0.0129,-0.0071, 0.0033,-0.4678
17-Jan-2019 10:34:14.404,-0.0063,-0.0057,-0.9847,-0.0004,-0.0027, 0.0163,-0.0094,-0.0128,-0.0118,-0.0071, 0.0033,-0.4678
17-Jan-2019 10:34:14.445,-0.0078,-0.0039,-0.9809,-0.0036,-0.0005, 0.0149,-0.0105,-0.0149,-0.0129,-0.0071, 0.0033,-0.4678
17-Jan-2019 10:34:14.484,-0.0084,-0.0030,-0.9829,-0.0006, 0.0004, 0.0162,-0.0083,-0.0159,-0.0129,-0.0071, 0.0033,-0.4678
17-Jan-2019 10:34:14.525,-0.0072,-0.0047,-0.9867, 0.0004, 0.0004, 0.0164,-0.0105,-0.0149,-0.0118,-0.0071, 0.0033,-0.4678
17-Jan-2019 10:34:14.564,-0.0063,-0.0035,-0.9866,-0.0007,-0.0012, 0.0152,-0.0094,-0.0159,-0.0129,-0.0071, 0.0033,-0.4678
17-Jan-2019 10:34:14.604,-0.0062,-0.0038,-0.9837,-0.0015,-0.0011, 0.0110,-0.0105,-0.0106,-0.0107,-0.0071, 0.0033,-0.4678
17-Jan-2019 10:34:14.643,-0.0064,-0.0032,-0.9890,-0.0014,-0.0006, 0.0112,-0.0105,-0.0117,-0.0129,-0.0071, 0.0033,-0.4678
17-Jan-2019 10:34:14.683,-0.0086,-0.0050,-0.9895, 0.0003,-0.0002, 0.0123,-0.0105,-0.0138,-0.0097,-0.0071, 0.0033,-0.4678
17-Jan-2019 10:34:14.724,-0.0056,-0.0022,-0.9879, 0.0028, 0.0002, 0.0110,-0.0084,-0.0149,-0.0118,-0.0071, 0.0034,-0.4678
17-Jan-2019 10:34:14.763,-0.0034,-0.0036,-0.9828, 0.0002,-0.0018, 0.0137,-0.0094,-0.0149,-0.0129,-0.0071, 0.0034,-0.4678
17-Jan-2019 10:34:14.802,-0.0073,-0.0037,-0.9820, 0.0001, 0.0007, 0.0181,-0.0094,-0.0117,-0.0118,-0.0071, 0.0034,-0.4678
17-Jan-2019 10:34:14.840,-0.0071,-0.0040,-0.9842,-0.0009,-0.0006, 0.0191,-0.0105,-0.0128,-0.0107,-0.0071, 0.0034,-0.4677
17-Jan-2019 10:34:14.880,-0.0061,-0.0032,-0.9847, 0.0004,-0.0012, 0.0139,-0.0105,-0.0149,-0.0129,-0.0071, 0.0034,-0.4678
17-Jan-2019 10:34:14.921,-0.0068,-0.0033,-0.9879,-0.0006,-0.0014, 0.0125,-0.0126,-0.0138,-0.0118,-0.0071, 0.0034,-0.4678
17-Jan-2019 10:34:14.962,-0.0091,-0.0043,-0.9905,-0.0016,-0.0013, 0.0122,-0.0105,-0.0106,-0.0129,-0.0071, 0.0034,-0.4677
17-Jan-2019 10:34:15.000,-0.0061,-0.0037,-0.9906,-0.0010,-0.0003, 0.0103,-0.0126,-0.0138,-0.0118,-0.0071, 0.0034,-0.4677
17-Jan-2019 10:34:15.041,-0.0079,-0.0039,-0.9855, 0.0004,-0.0018, 0.0108,-0.0094,-0.0149,-0.0129,-0.0071, 0.0034,-0.4678
17-Jan-2019 10:34:15.079,-0.0078,-0.0050,-0.9837,-0.0015,-0.0010, 0.0141,-0.0116,-0.0128,-0.0118,-0.0071, 0.0034,-0.4678
17-Jan-2019 10:34:15.121,-0.0072,-0.0054,-0.9855,-0.0006,-0.0011, 0.0164,-0.0094,-0.0138,-0.0118,-0.0071, 0.0034,-0.4678
17-Jan-2019 10:34:15.160,-0.0054,-0.0027,-0.9856, 0.0006, 0.0001, 0.0152,-0.0116,-0.0138,-0.0118,-0.0071, 0.0034,-0.4677
17-Jan-2019 10:34:15.200,-0.0073,-0.0045,-0.9842,-0.0011,-0.0013, 0.0138,-0.0073,-0.0127,-0.0128,-0.0071, 0.0034,-0.4677
17-Jan-2019 10:34:15.239,-0.0086,-0.0036,-0.9864,-0.0001,-0.0015, 0.0148,-0.0115,-0.0149,-0.0118,-0.0071, 0.0034,-0.4677
17-Jan-2019 10:34:15.278,-0.0072,-0.0034,-0.9869,-0.0009,-0.0005, 0.0154,-0.0116,-0.0138,-0.0118,-0.0071, 0.0034,-0.4677
17-Jan-2019 10:34:15.319,-0.0071,-0.0050,-0.9857,-0.0012, 0.0009, 0.0135,-0.0084,-0.0106,-0.0128,-0.0070, 0.0034,-0.4677
17-Jan-2019 10:34:15.357,-0.0083,-0.0043,-0.9868, 0.0002,-0.0020, 0.0080,-0.0084,-0.0149,-0.0118,-0.0071, 0.0035,-0.4677
17-Jan-2019 10:34:15.398,-0.0076,-0.0039,-0.9859,-0.0014,-0.0001, 0.0139,-0.0115,-0.0149,-0.0118,-0.0070, 0.0035,-0.4677
17-Jan-2019 10:34:15.437,-0.0058,-0.0046,-0.9870, 0.0009,-0.0009, 0.0140,-0.0105,-0.0128,-0.0118,-0.0070, 0.0036,-0.4677
17-Jan-2019 10:34:15.478,-0.0084,-0.0052,-0.9839,-0.0010,-0.0010, 0.0155,-0.0105,-0.0138,-0.0139,-0.0070, 0.0036,-0.4677
17-Jan-2019 10:34:15.518,-0.0064,-0.0043,-0.9851,-0.0003, 0.0001, 0.0132,-0.0084,-0.0117,-0.0118,-0.0070, 0.0036,-0.4677
17-Jan-2019 10:34:15.557,-0.0092,-0.0029,-0.9854,-0.0013,-0.0007, 0.0152,-0.0105,-0.0149,-0.0129,-0.0070, 0.0036,-0.4677
17-Jan-2019 10:34:15.597,-0.0082,-0.0041,-0.9867,-0.0020,-0.0006, 0.0169,-0.0116,-0.0138,-0.0107,-0.0070, 0.0036,-0.4677
17-Jan-2019 10:34:15.637,-0.0060,-0.0041,-0.9842, 0.0016,-0.0022, 0.0142,-0.0115,-0.0160,-0.0129,-0.0070, 0.0036,-0.4677
17-Jan-2019 10:34:15.675,-0.0066,-0.0033,-0.9869,-0.0006, 0.0006, 0.0123,-0.0073,-0.0117,-0.0118,-0.0070, 0.0036,-0.4677
17-Jan-2019 10:34:15.717,-0.0085,-0.0044,-0.9908,-0.0011, 0.0000, 0.0138,-0.0105,-0.0128,-0.0118,-0.0070, 0.0036,-0.4677
17-Jan-2019 10:34:15.754,-0.0076,-0.0060,-0.9880,-0.0009,-0.0015, 0.0126,-0.0084,-0.0149,-0.0118,-0.0070, 0.0036,-0.4676
17-Jan-2019 10:34:15.793,-0.0071,-0.0033,-0.9849, 0.0003,-0.0006, 0.0115,-0.0084,-0.0138,-0.0118,-0.0070, 0.0037,-0.4677
17-Jan-2019 10:34:15.833,-0.0075,-0.0036,-0.9865,-0.0002,-0.0013, 0.0137,-0.0094,-0.0138,-0.0129,-0.0070, 0.0037,-0.4676
17-Jan-2019 10:34:15.873,-0.0084,-0.0061,-0.9873,-0.0005,-0.0009, 0.0163,-0.0094,-0.0117,-0.0129,-0.0070, 0.0037,-0.4676
17-Jan-2019 10:34:15.913,-0.0072,-0.0031,-0.9831,-0.0003, 0.0009, 0.0162,-0.0094,-0.0160,-0.0107,-0.0070, 0.0037,-0.4676
17-Jan-2019 10:34:15.954,-0.0090,-0.0038,-0.9823, 0.0019,-0.0002, 0.0159,-0.0105,-0.0149,-0.0129,-0.0070, 0.0037,-0.4676
17-Jan-2019 10:34:15.995,-0.0069,-0.0044,-0.9868,-0.0011,-0.0009, 0.0165,-0.0105,-0.0160,-0.0118,-0.0070, 0.0037,-0.4676
17-Jan-2019 10:34:16.034,-0.0075,-0.0065,-0.9888, 0.0006,-0.0023, 0.0149,-0.0094,-0.0138,-0.0129,-0.0071, 0.0037,-0.4676
17-Jan-2019 10:34:16.073,-0.0075,-0.0038,-0.9887, 0.0007, 0.0003, 0.0088,-0.0126,-0.0160,-0.0129,-0.0071, 0.0038,-0.4676
17-Jan-2019 10:34:16.114,-0.0076,-0.0039,-0.9884, 0.0002,-0.0017, 0.0079,-0.0094,-0.0138,-0.0118,-0.0071, 0.0038,-0.4676
17-Jan-2019 10:34:16.154,-0.0073,-0.0025,-0.9911,-0.0009, 0.0001, 0.0128,-0.0105,-0.0149,-0.0118,-0.0071, 0.0038,-0.4676
17-Jan-2019 10:34:16.193,-0.0074,-0.0070,-0.9852, 0.0000,-0.0007, 0.0141,-0.0116,-0.0128,-0.0118,-0.0071, 0.0038,-0.4676
17-Jan-2019 10:34:16.232,-0.0073,-0.0015,-0.9794, 0.0001, 0.0010, 0.0162,-0.0105,-0.0149,-0.0129,-0.0071, 0.0038,-0.4676
17-Jan-2019 10:34:16.271,-0.0089,-0.0048,-0.9775,-0.0012,-0.0020, 0.0189,-0.0084,-0.0128,-0.0107,-0.0071, 0.0038,-0.4676
17-Jan-2019 10:34:16.313,-0.0051,-0.0051,-0.9820, 0.0020,-0.0018, 0.0234,-0.0094,-0.0138,-0.0107,-0.0071, 0.0038,-0.4676
17-Jan-2019 10:34:16.351,-0.0092,-0.0038,-0.9849,-0.0003,-0.0010, 0.0159,-0.0084,-0.0106,-0.0107,-0.0072, 0.0039,-0.4675
17-Jan-2019 10:34:16.390,-0.0088,-0.0049,-0.9889,-0.0019,-0.0007, 0.0093,-0.0115,-0.0149,-0.0118,-0.0071, 0.0039,-0.4675
17-Jan-2019 10:34:16.431,-0.0055,-0.0031,-0.9954, 0.0010,-0.0001, 0.0078,-0.0094,-0.0138,-0.0107,-0.0071, 0.0039,-0.4675
17-Jan-2019 10:34:16.470,-0.0077,-0.0056,-0.9934,-0.0002,-0.0018, 0.0106,-0.0094,-0.0149,-0.0107,-0.0072, 0.0039,-0.4675
17-Jan-2019 10:34:16.511,-0.0073,-0.0064,-0.9869,-0.0004, 0.0009, 0.0112,-0.0094,-0.0106,-0.0107,-0.0072, 0.0039,-0.4675
17-Jan-2019 10:34:16.549,-0.0081,-0.0032,-0.9840,-0.0000,-0.0011, 0.0118,-0.0105,-0.0181,-0.0107,-0.0072, 0.0039,-0.4675
17-Jan-2019 10:34:16.590,-0.0060,-0.0055,-0.9844, 0.0003,-0.0023, 0.0162,-0.0115,-0.0160,-0.0129,-0.0072, 0.0039,-0.4675
17-Jan-2019 10:34:16.630,-0.0081,-0.0061,-0.9856,-0.0014,-0.0007, 0.0198,-0.0105,-0.0128,-0.0139,-0.0071, 0.0039,-0.4675
17-Jan-2019 10:34:16.669,-0.0058,-0.0044,-0.9821, 0.0015, 0.0000, 0.0148,-0.0105,-0.0096,-0.0118,-0.0071, 0.0039,-0.4675
17-Jan-2019 10:34:16.710,-0.0074,-0.0022,-0.9811, 0.0005,-0.0007, 0.0148,-0.0105,-0.0149,-0.0118,-0.0071, 0.0039,-0.4675
17-Jan-2019 10:34:16.749,-0.0067,-0.0058,-0.9851, 0.0006,-0.0026, 0.0177,-0.0105,-0.0128,-0.0129,-0.0071, 0.0039,-0.4675
17-Jan-2019 10:34:16.789,-0.0050,-0.0049,-0.9850, 0.0005, 0.0011, 0.0194,-0.0116,-0.0117,-0.0129,-0.0070, 0.0039,-0.4675
17-Jan-2019 10:34:16.828,-0.0040,-0.0034,-0.9838, 0.0039,-0.0016, 0.0124,-0.0105,-0.0138,-0.0129,-0.0070, 0.0039,-0.4675
17-Jan-2019 10:34:16.867,-0.0213,-0.0023,-0.9867,-0.0034,-0.0012, 0.0105,-0.0094,-0.0170,-0.0107,-0.0070, 0.0039,-0.4674
17-Jan-2019 10:34:16.909,-0.0025,-0.0055,-0.9923, 0.0029,-0.0022, 0.0123,-0.0094,-0.0117,-0.0118,-0.0070, 0.0039,-0.4675
17-Jan-2019 10:34:16.948,-0.0063,-0.0082,-0.9872, 0.0026,-0.0010, 0.0158,-0.0105,-0.0128,-0.0118,-0.0070, 0.0039,-0.4675
17-Jan-2019 10:34:16.988,-0.0042,-0.0041,-0.9878, 0.0032, 0.0012, 0.0069,-0.0105,-0.0138,-0.0107,-0.0069, 0.0039,-0.4675
17-Jan-2019 10:34:17.026,-0.0159,-0.0052,-0.9888,-0.0046,-0.0031, 0.0096,-0.0084,-0.0128,-0.0107,-0.0069, 0.0039,-0.4675
17-Jan-2019 10:34:17.067,-0.0033,-0.0056,-0.9887, 0.0031, 0.0001, 0.0150,-0.0084,-0.0138,-0.0118,-0.0069, 0.0039,-0.4674
17-Jan-2019 10:34:17.107,-0.0061,-0.0081,-0.9811, 0.0008,-0.0011, 0.0178,-0.0094,-0.0128,-0.0118,-0.0069, 0.0039,-0.4674
17-Jan-2019 10:34:17.147,-0.0075,-0.0034,-0.9804,-0.0022,-0.0012, 0.0169,-0.0105,-0.0149,-0.0107,-0.0069, 0.0039,-0.4674
17-Jan-2019 10:34:17.185,-0.0075,-0.0031,-0.9828, 0.0016,-0.0024, 0.0185,-0.0094,-0.0149,-0.0118,-0.0068, 0.0039,-0.4674
17-Jan-2019 10:34:17.226,-0.0061,-0.0060,-0.9867, 0.0001,-0.0015, 0.0172,-0.0094,-0.0117,-0.0107,-0.0069, 0.0039,-0.4674
17-Jan-2019 10:34:17.264,-0.0073,-0.0066,-0.9848,-0.0003,-0.0003, 0.0125,-0.0116,-0.0117,-0.0129,-0.0069, 0.0039,-0.4674
17-Jan-2019 10:34:17.306,-0.0070,-0.0039,-0.9862, 0.0004, 0.0008, 0.0129,-0.0126,-0.0160,-0.0118,-0.0069, 0.0039,-0.4674
17-Jan-2019 10:34:17.344,-0.0070,-0.0035,-0.9900, 0.0011,-0.0036, 0.0144,-0.0094,-0.0138,-0.0107,-0.0068, 0.0039,-0.4674
17-Jan-2019 10:34:17.384,-0.0074,-0.0050,-0.9855,-0.0027,-0.0010, 0.0143,-0.0116,-0.0128,-0.0129,-0.0068, 0.0039,-0.4674
17-Jan-2019 10:34:17.426,-0.0052,-0.0058,-0.9836, 0.0010, 0.0007, 0.0103,-0.0116,-0.0128,-0.0129,-0.0068, 0.0039,-0.4674
17-Jan-2019 10:34:17.464,-0.0079,-0.0047,-0.9854,-0.0005,-0.0005, 0.0131,-0.0105,-0.0128,-0.0118,-0.0068, 0.0039,-0.4674
17-Jan-2019 10:34:17.506,-0.0060,-0.0050,-0.9918,-0.0015,-0.0023, 0.0152,-0.0084,-0.0127,-0.0128,-0.0067, 0.0039,-0.4674
17-Jan-2019 10:34:17.544,-0.0065,-0.0050,-0.9862, 0.0007,-0.0008, 0.0132,-0.0094,-0.0127,-0.0139,-0.0067, 0.0039,-0.4674
17-Jan-2019 10:34:17.584,-0.0069,-0.0044,-0.9811, 0.0004, 0.0012, 0.0121,-0.0105,-0.0138,-0.0129,-0.0068, 0.0039,-0.4675
17-Jan-2019 10:34:17.623,-0.0077,-0.0067,-0.9851,-0.0010,-0.0038, 0.0162,-0.0105,-0.0149,-0.0129,-0.0068, 0.0039,-0.4675
17-Jan-2019 10:34:17.662,-0.0059,-0.0041,-0.9884,-0.0001,-0.0009, 0.0186,-0.0105,-0.0117,-0.0129,-0.0068, 0.0039,-0.4675
17-Jan-2019 10:34:17.702,-0.0061,-0.0057,-0.9834, 0.0016,-0.0012, 0.0141,-0.0094,-0.0138,-0.0129,-0.0068, 0.0039,-0.4675
17-Jan-2019 10:34:17.741,-0.0085,-0.0046,-0.9817,-0.0017,-0.0002, 0.0115,-0.0105,-0.0149,-0.0107,-0.0068, 0.0039,-0.4675
17-Jan-2019 10:34:17.783,-0.0049,-0.0048,-0.9894, 0.0000,-0.0029, 0.0141,-0.0105,-0.0138,-0.0139,-0.0067, 0.0039,-0.4675
17-Jan-2019 10:34:17.821,-0.0068,-0.0039,-0.9892, 0.0010,-0.0015, 0.0171,-0.0094,-0.0128,-0.0107,-0.0068, 0.0039,-0.4675
17-Jan-2019 10:34:17.860,-0.0062,-0.0052,-0.9836, 0.0001,-0.0011, 0.0132,-0.0105,-0.0138,-0.0118,-0.0068, 0.0039,-0.4675
17-Jan-2019 10:34:17.902,-0.0078,-0.0062,-0.9823, 0.0000,-0.0009, 0.0102,-0.0105,-0.0128,-0.0129,-0.0068, 0.0039,-0.4675
17-Jan-2019 10:34:17.941,-0.0055,-0.0043,-0.9889, 0.0011,-0.0022, 0.0166,-0.0094,-0.0138,-0.0118,-0.0068, 0.0039,-0.4675
17-Jan-2019 10:34:17.980,-0.0085,-0.0050,-0.9868,-0.0007,-0.0021, 0.0165,-0.0105,-0.0138,-0.0118,-0.0068, 0.0039,-0.4675
17-Jan-2019 10:34:18.021,-0.0054,-0.0050,-0.9824, 0.0009,-0.0008, 0.0116,-0.0105,-0.0128,-0.0118,-0.0068, 0.0039,-0.4675
17-Jan-2019 10:34:18.059,-0.0070,-0.0055,-0.9844, 0.0006,-0.0027, 0.0103,-0.0126,-0.0149,-0.0118,-0.0068, 0.0038,-0.4675
17-Jan-2019 10:34:18.101,-0.0076,-0.0043,-0.9876, 0.0012,-0.0020, 0.0184,-0.0084,-0.0149,-0.0118,-0.0068, 0.0038,-0.4675
17-Jan-2019 10:34:18.140,-0.0074,-0.0030,-0.9847, 0.0008, 0.0013, 0.0204,-0.0105,-0.0149,-0.0129,-0.0068, 0.0038,-0.4675
17-Jan-2019 10:34:18.179,-0.0076,-0.0072,-0.9824,-0.0012,-0.0017, 0.0109,-0.0105,-0.0138,-0.0139,-0.0068, 0.0038,-0.4675
17-Jan-2019 10:34:18.219,-0.0040,-0.0036,-0.9872, 0.0015,-0.0015, 0.0115,-0.0115,-0.0170,-0.0118,-0.0068, 0.0038,-0.4675
17-Jan-2019 10:34:18.259,-0.0065,-0.0044,-0.9909, 0.0009,-0.0009, 0.0181,-0.0105,-0.0138,-0.0118,-0.0068, 0.0038,-0.4675
17-Jan-2019 10:34:18.299,-0.0069,-0.0052,-0.9884, 0.0007,-0.0016, 0.0127,-0.0094,-0.0128,-0.0129,-0.0068, 0.0038,-0.4675
17-Jan-2019 10:34:18.345,-0.0061,-0.0058,-0.9858, 0.0007,-0.0020, 0.0142,-0.0105,-0.0138,-0.0139,-0.0069, 0.0038,-0.4675
17-Jan-2019 10:34:18.377,-0.0091,-0.0031,-0.9863,-0.0018, 0.0002, 0.0140,-0.0105,-0.0128,-0.0139,-0.0069, 0.0038,-0.4676
17-Jan-2019 10:34:18.418,-0.0044,-0.0050,-0.9886, 0.0006,-0.0017, 0.0211,-0.0084,-0.0138,-0.0118,-0.0069, 0.0038,-0.4676
17-Jan-2019 10:34:18.458,-0.0054,-0.0048,-0.9848, 0.0027,-0.0003, 0.0147,-0.0115,-0.0149,-0.0139,-0.0069, 0.0038,-0.4676
17-Jan-2019 10:34:18.498,-0.0073,-0.0055,-0.9845,-0.0014,-0.0022, 0.0067,-0.0105,-0.0170,-0.0118,-0.0070, 0.0038,-0.4676
17-Jan-2019 10:34:18.538,-0.0081,-0.0037,-0.9898, 0.0004,-0.0014, 0.0117,-0.0084,-0.0149,-0.0118,-0.0070, 0.0038,-0.4676
17-Jan-2019 10:34:18.575,-0.0080,-0.0052,-0.9886,-0.0003,-0.0010, 0.0202,-0.0105,-0.0138,-0.0118,-0.0070, 0.0038,-0.4676
17-Jan-2019 10:34:18.616,-0.0062,-0.0063,-0.9822, 0.0016, 0.0002, 0.0156,-0.0105,-0.0149,-0.0118,-0.0070, 0.0038,-0.4676
17-Jan-2019 10:34:18.655,-0.0070,-0.0053,-0.9828, 0.0018,-0.0039, 0.0088,-0.0084,-0.0138,-0.0097,-0.0070, 0.0038,-0.4676
17-Jan-2019 10:34:18.696,-0.0058,-0.0033,-0.9912, 0.0004,-0.0040, 0.0146,-0.0094,-0.0160,-0.0118,-0.0071, 0.0038,-0.4676
17-Jan-2019 10:34:18.734,-0.0071,-0.0052,-0.9906,-0.0004,-0.0050, 0.0181,-0.0105,-0.0149,-0.0129,-0.0071, 0.0038,-0.4676
17-Jan-2019 10:34:18.774,-0.0083,-0.0049,-0.9801, 0.0001, 0.0015, 0.0123,-0.0105,-0.0117,-0.0129,-0.0071, 0.0037,-0.4676
17-Jan-2019 10:34:18.814,-0.0071,-0.0024,-0.9848,-0.0014, 0.0003, 0.0087,-0.0105,-0.0138,-0.0118,-0.0071, 0.0037,-0.4676
17-Jan-2019 10:34:18.855,-0.0073,-0.0046,-0.9906, 0.0003,-0.0007, 0.0148,-0.0105,-0.0138,-0.0129,-0.0071, 0.0037,-0.4676
17-Jan-2019 10:34:18.894,-0.0063,-0.0058,-0.9884, 0.0023, 0.0002, 0.0178,-0.0116,-0.0117,-0.0118,-0.0071, 0.0037,-0.4676
17-Jan-2019 10:34:18.934,-0.0057,-0.0035,-0.9802, 0.0012,-0.0017, 0.0092,-0.0094,-0.0149,-0.0107,-0.0071, 0.0037,-0.4676
17-Jan-2019 10:34:18.974,-0.0044,-0.0047,-0.9856,-0.0002,-0.0018, 0.0114,-0.0105,-0.0160,-0.0129,-0.0072, 0.0037,-0.4676
17-Jan-2019 10:34:19.014,-0.0063,-0.0034,-0.9938,-0.0009, 0.0004, 0.0173,-0.0105,-0.0138,-0.0118,-0.0072, 0.0037,-0.4676
17-Jan-2019 10:34:19.054,-0.0081,-0.0036,-0.9913,-0.0011,-0.0012, 0.0119,-0.0105,-0.0128,-0.0118,-0.0072, 0.0037,-0.4676
17-Jan-2019 10:34:19.094,-0.0078,-0.0082,-0.9824, 0.0017,-0.0010, 0.0076,-0.0105,-0.0106,-0.0107,-0.0072, 0.0037,-0.4676
17-Jan-2019 10:34:19.133,-0.0064,-0.0096,-0.9884, 0.0033,-0.0078, 0.0109,-0.0126,-0.0181,-0.0129,-0.0072, 0.0036,-0.4676
17-Jan-2019 10:34:19.171,-0.0107,-0.0040,-0.9927, 0.0000, 0.0005, 0.0146,-0.0084,-0.0149,-0.0118,-0.0072, 0.0036,-0.4676
17-Jan-2019 10:34:19.212,-0.0046,-0.0064,-0.9801, 0.0034, 0.0003, 0.0163,-0.0105,-0.0117,-0.0118,-0.0072, 0.0036,-0.4676
17-Jan-2019 10:34:19.251,-0.0067,-0.0029,-0.9741, 0.0005, 0.0007, 0.0258,-0.0126,-0.0160,-0.0097,-0.0073, 0.0036,-0.4676
17-Jan-2019 10:34:19.293,-0.0070,-0.0025,-0.9780,-0.0024,-0.0010, 0.0239,-0.0073,-0.0096,-0.0128,-0.0072, 0.0036,-0.4676
17-Jan-2019 10:34:19.342,-0.0043,-0.0056,-0.9941, 0.0029,-0.0020, 0.0059,-0.0115,-0.0170,-0.0129,-0.0073, 0.0036,-0.4676
17-Jan-2019 10:34:19.370,-0.0092,-0.0066,-0.9842, 0.0001,-0.0013, 0.0093,-0.0095,-0.0064,-0.0139,-0.0073, 0.0035,-0.4677
17-Jan-2019 10:34:19.410,-0.0054,-0.0009,-0.9933, 0.0002, 0.0008, 0.0010,-0.0105,-0.0181,-0.0107,-0.0073, 0.0035,-0.4677
17-Jan-2019 10:34:19.450,-0.0087,-0.0032,-1.0027,-0.0035, 0.0033, 0.0010,-0.0105,-0.0106,-0.0118,-0.0073, 0.0035,-0.4677
17-Jan-2019 10:34:19.491,-0.0065,-0.0031,-1.0018, 0.0007,-0.0023, 0.0072,-0.0105,-0.0149,-0.0118,-0.0073, 0.0035,-0.4676
17-Jan-2019 10:34:19.530,-0.0062,-0.0096,-0.9805, 0.0014,-0.0030, 0.0096,-0.0094,-0.0138,-0.0129,-0.0073, 0.0035,-0.4676
17-Jan-2019 10:34:19.570,-0.0058,-0.0057,-0.9735, 0.0014,-0.0029, 0.0141,-0.0105,-0.0128,-0.0129,-0.0072, 0.0035,-0.4676
17-Jan-2019 10:34:19.610,-0.0084,-0.0050,-0.9808,-0.0011,-0.0022, 0.0276,-0.0105,-0.0160,-0.0129,-0.0072, 0.0035,-0.4676
17-Jan-2019 10:34:19.650,-0.0061,-0.0025,-0.9814, 0.0013, 0.0003, 0.0262,-0.0116,-0.0128,-0.0129,-0.0073, 0.0035,-0.4676
17-Jan-2019 10:34:19.690,-0.0089,-0.0049,-0.9775,-0.0010,-0.0021, 0.0170,-0.0115,-0.0149,-0.0129,-0.0073, 0.0035,-0.4677
17-Jan-2019 10:34:19.729,-0.0069,-0.0078,-0.9826,-0.0022, 0.0001, 0.0083,-0.0084,-0.0106,-0.0107,-0.0073, 0.0035,-0.4676
17-Jan-2019 10:34:19.769,-0.0051,-0.0036,-0.9980, 0.0077,-0.0042, 0.0149,-0.0126,-0.0160,-0.0118,-0.0073, 0.0035,-0.4676
17-Jan-2019 10:34:19.808,-0.0100,-0.0050,-0.9918,-0.0019,-0.0010, 0.0112,-0.0105,-0.0128,-0.0118,-0.0073, 0.0035,-0.4677
17-Jan-2019 10:34:19.847,-0.0038,-0.0068,-0.9803,-0.0002,-0.0031, 0.0025,-0.0094,-0.0138,-0.0129,-0.0073, 0.0035,-0.4676
17-Jan-2019 10:34:19.888,-0.0087,-0.0060,-0.9807, 0.0024, 0.0011, 0.0112,-0.0073,-0.0096,-0.0118,-0.0073, 0.0035,-0.4676
17-Jan-2019 10:34:19.926,-0.0093,-0.0034,-1.0029,-0.0013, 0.0002, 0.0190,-0.0126,-0.0170,-0.0118,-0.0073, 0.0035,-0.4676
17-Jan-2019 10:34:19.967,-0.0079,-0.0068,-0.9912,-0.0021,-0.0037, 0.0070,-0.0105,-0.0106,-0.0107,-0.0073, 0.0035,-0.4676
17-Jan-2019 10:34:20.007,-0.0057,-0.0052,-0.9790, 0.0034,-0.0023, 0.0074,-0.0105,-0.0160,-0.0118,-0.0073, 0.0035,-0.4676
17-Jan-2019 10:34:20.046,-0.0042,-0.0111,-0.9872, 0.0018,-0.0021, 0.0141,-0.0073,-0.0117,-0.0118,-0.0073, 0.0036,-0.4676
17-Jan-2019 10:34:20.087,-0.0125,-0.0054,-0.9924,-0.0019,-0.0028, 0.0231,-0.0094,-0.0149,-0.0129,-0.0073, 0.0036,-0.4676
17-Jan-2019 10:34:20.126,-0.0050, 0.0003,-0.9802, 0.0018, 0.0007, 0.0208,-0.0115,-0.0160,-0.0129,-0.0073, 0.0036,-0.4676
17-Jan-2019 10:34:20.166,-0.0076,-0.0025,-0.9783, 0.0020, 0.0017, 0.0054,-0.0105,-0.0138,-0.0118,-0.0073, 0.0036,-0.4677
17-Jan-2019 10:34:20.206,-0.0093,-0.0066,-0.9916,-0.0052,-0.0011, 0.0115,-0.0084,-0.0117,-0.0128,-0.0073, 0.0036,-0.4677
17-Jan-2019 10:34:20.244,-0.0014,-0.0056,-0.9948, 0.0076, 0.0004, 0.0199,-0.0105,-0.0128,-0.0118,-0.0073, 0.0036,-0.4677
17-Jan-2019 10:34:20.286,-0.0107,-0.0066,-0.9841,-0.0002,-0.0023, 0.0143,-0.0094,-0.0149,-0.0118,-0.0073, 0.0036,-0.4677
17-Jan-2019 10:34:20.324,-0.0054,-0.0035,-0.9810, 0.0007,-0.0024, 0.0071,-0.0094,-0.0149,-0.0118,-0.0073, 0.0036,-0.4677
17-Jan-2019 10:34:20.364,-0.0089,-0.0016,-0.9887, 0.0022, 0.0033, 0.0169,-0.0105,-0.0128,-0.0118,-0.0073, 0.0036,-0.4677
17-Jan-2019 10:34:20.404,-0.0102,-0.0061,-0.9926,-0.0013, 0.0002, 0.0233,-0.0105,-0.0138,-0.0129,-0.0074, 0.0035,-0.4677
17-Jan-2019 10:34:20.444,-0.0051,-0.0056,-0.9850, 0.0021,-0.0018, 0.0108,-0.0116,-0.0138,-0.0118,-0.0074, 0.0035,-0.4676
17-Jan-2019 10:34:20.483,-0.0072,-0.0072,-0.9815, 0.0005,-0.0049, 0.0072,-0.0094,-0.0128,-0.0118,-0.0074, 0.0035,-0.4677
17-Jan-2019 10:34:20.523,-0.0057,-0.0067,-0.9852, 0.0000,-0.0052, 0.0205,-0.0084,-0.0128,-0.0118,-0.0073, 0.0035,-0.4677
17-Jan-2019 10:34:20.563,-0.0137,-0.0026,-0.9884,-0.0063, 0.0066, 0.0215,-0.0105,-0.0128,-0.0118,-0.0073, 0.0035,-0.4677
17-Jan-2019 10:34:20.602,-0.0060,-0.0074,-0.9856, 0.0016,-0.0050, 0.0101,-0.0137,-0.0149,-0.0107,-0.0073, 0.0035,-0.4676
17-Jan-2019 10:34:20.642,-0.0087,-0.0046,-0.9890, 0.0008,-0.0009, 0.0039,-0.0094,-0.0128,-0.0118,-0.0073, 0.0035,-0.4676
17-Jan-2019 10:34:20.683,-0.0050,-0.0099,-0.9968, 0.0011,-0.0066, 0.0155,-0.0105,-0.0170,-0.0118,-0.0073, 0.0035,-0.4676
17-Jan-2019 10:34:20.722,-0.0048,-0.0009,-0.9900, 0.0033, 0.0032, 0.0137,-0.0105,-0.0138,-0.0107,-0.0073, 0.0035,-0.4676
17-Jan-2019 10:34:20.762,-0.0092,-0.0027,-0.9797,-0.0024,-0.0007, 0.0096,-0.0115,-0.0170,-0.0097,-0.0073, 0.0035,-0.4676
17-Jan-2019 10:34:20.802,-0.0031,-0.0041,-0.9825, 0.0018,-0.0029, 0.0110,-0.0094,-0.0149,-0.0107,-0.0073, 0.0035,-0.4675
17-Jan-2019 10:34:20.840,-0.0074,-0.0066,-0.9852, 0.0006,-0.0028, 0.0232,-0.0094,-0.0128,-0.0118,-0.0073, 0.0035,-0.4675
17-Jan-2019 10:34:20.882,-0.0062,-0.0005,-0.9818,-0.0006, 0.0016, 0.0213,-0.0105,-0.0138,-0.0129,-0.0073, 0.0035,-0.4675
17-Jan-2019 10:34:20.920,-0.0053,-0.0101,-0.9784, 0.0015,-0.0053, 0.0105,-0.0094,-0.0149,-0.0129,-0.0073, 0.0035,-0.4675
17-Jan-2019 10:34:20.961,-0.0103, 0.0018,-0.9879,-0.0015, 0.0016, 0.0115,-0.0094,-0.0138,-0.0107,-0.0073, 0.0035,-0.4674
17-Jan-2019 10:34:21.001,-0.0026,-0.0090,-0.9930, 0.0010,-0.0036, 0.0186,-0.0094,-0.0128,-0.0129,-0.0073, 0.0035,-0.4674
17-Jan-2019 10:34:21.039,-0.0076,-0.0036,-0.9884, 0.0015,-0.0012, 0.0104,-0.0105,-0.0149,-0.0118,-0.0074, 0.0035,-0.4673
17-Jan-2019 10:34:21.080,-0.0073,-0.0059,-0.9844,-0.0012,-0.0011, 0.0032,-0.0115,-0.0160,-0.0118,-0.0074, 0.0035,-0.4673
17-Jan-2019 10:34:21.119,-0.0053,-0.0028,-0.9950, 0.0023,-0.0024, 0.0094,-0.0105,-0.0138,-0.0118,-0.0074, 0.0035,-0.4673
17-Jan-2019 10:34:21.159,-0.0075,-0.0074,-0.9928,-0.0021,-0.0007, 0.0163,-0.0105,-0.0117,-0.0118,-0.0074, 0.0035,-0.4673
17-Jan-2019 10:34:21.199,-0.0058,-0.0054,-0.9827, 0.0035,-0.0007, 0.0151,-0.0126,-0.0149,-0.0107,-0.0073, 0.0035,-0.4672
17-Jan-2019 10:34:21.238,-0.0069,-0.0044,-0.9758,-0.0003,-0.0030, 0.0131,-0.0105,-0.0149,-0.0118,-0.0073, 0.0034,-0.4672
17-Jan-2019 10:34:21.279,-0.0050,-0.0028,-0.9874, 0.0007, 0.0012, 0.0206,-0.0094,-0.0160,-0.0107,-0.0074, 0.0034,-0.4672
17-Jan-2019 10:34:21.317,-0.0094,-0.0052,-0.9871,-0.0006,-0.0009, 0.0188,-0.0094,-0.0138,-0.0118,-0.0074, 0.0034,-0.4671
17-Jan-2019 10:34:21.357,-0.0071,-0.0049,-0.9834, 0.0012, 0.0003, 0.0109,-0.0115,-0.0170,-0.0097,-0.0074, 0.0034,-0.4671
17-Jan-2019 10:34:21.397,-0.0081,-0.0044,-0.9848, 0.0007,-0.0038, 0.0070,-0.0105,-0.0128,-0.0118,-0.0075, 0.0034,-0.4671
17-Jan-2019 10:34:21.438,-0.0061,-0.0059,-0.9903,-0.0001,-0.0012, 0.0163,-0.0105,-0.0138,-0.0107,-0.0075, 0.0034,-0.4670
17-Jan-2019 10:34:21.476,-0.0070,-0.0033,-0.9932, 0.0005, 0.0002, 0.0152,-0.0094,-0.0149,-0.0107,-0.0075, 0.0034,-0.4670
17-Jan-2019 10:34:21.517,-0.0081,-0.0055,-0.9836, 0.0017,-0.0024, 0.0068,-0.0115,-0.0181,-0.0107,-0.0075, 0.0034,-0.4670
17-Jan-2019 10:34:21.557,-0.0087,-0.0061,-0.9861,-0.0012,-0.0016, 0.0083,-0.0105,-0.0138,-0.0107,-0.0075, 0.0034,-0.4670
17-Jan-2019 10:34:21.596,-0.0068,-0.0047,-0.9890, 0.0006, 0.0004, 0.0159,-0.0084,-0.0149,-0.0107,-0.0075, 0.0034,-0.4670
17-Jan-2019 10:34:21.636,-0.0069,-0.0054,-0.9866, 0.0008,-0.0014, 0.0170,-0.0126,-0.0138,-0.0118,-0.0075, 0.0034,-0.4669
17-Jan-2019 10:34:21.676,-0.0067,-0.0033,-0.9774,-0.0003,-0.0026, 0.0118,-0.0105,-0.0170,-0.0118,-0.0076, 0.0034,-0.4669
17-Jan-2019 10:34:21.715,-0.0057,-0.0042,-0.9821,-0.0002,-0.0026, 0.0157,-0.0105,-0.0149,-0.0129,-0.0076, 0.0033,-0.4669
17-Jan-2019 10:34:21.754,-0.0067,-0.0050,-0.9891,-0.0004,-0.0010, 0.0189,-0.0084,-0.0117,-0.0107,-0.0076, 0.0033,-0.4669
17-Jan-2019 10:34:21.793,-0.0056,-0.0045,-0.9901, 0.0014, 0.0002, 0.0125,-0.0116,-0.0138,-0.0107,-0.0076, 0.0033,-0.4669
17-Jan-2019 10:34:21.833,-0.0072,-0.0059,-0.9856,-0.0001,-0.0007, 0.0038,-0.0105,-0.0128,-0.0107,-0.0076, 0.0033,-0.4669
17-Jan-2019 10:34:21.873,-0.0069,-0.0047,-0.9923, 0.0012,-0.0030, 0.0096,-0.0094,-0.0149,-0.0118,-0.0076, 0.0033,-0.4669
17-Jan-2019 10:34:21.914,-0.0057,-0.0039,-0.9921,-0.0002,-0.0019, 0.0148,-0.0105,-0.0128,-0.0107,-0.0076, 0.0033,-0.4669
17-Jan-2019 10:34:21.953,-0.0102,-0.0031,-0.9788,-0.0027,-0.0006, 0.0199,-0.0115,-0.0149,-0.0118,-0.0076, 0.0033,-0.4668
17-Jan-2019 10:34:21.993,-0.0066,-0.0037,-0.9783, 0.0033,-0.0021, 0.0172,-0.0105,-0.0149,-0.0118,-0.0077, 0.0033,-0.4668
17-Jan-2019 10:34:22.032,-0.0050,-0.0050,-0.9839, 0.0015, 0.0007, 0.0133,-0.0094,-0.0128,-0.0129,-0.0077, 0.0033,-0.4669
17-Jan-2019 10:34:22.072,-0.0084,-0.0036,-0.9912,-0.0004,-0.0010, 0.0198,-0.0094,-0.0138,-0.0118,-0.0078, 0.0033,-0.4668
17-Jan-2019 10:34:22.113,-0.0052,-0.0059,-0.9899, 0.0004,-0.0024, 0.0097,-0.0116,-0.0128,-0.0107,-0.0077, 0.0033,-0.4668
17-Jan-2019 10:34:22.153,-0.0084,-0.0035,-0.9837,-0.0002,-0.0028, 0.0098,-0.0105,-0.0160,-0.0107,-0.0077, 0.0032,-0.4668
17-Jan-2019 10:34:22.191,-0.0043,-0.0040,-0.9905, 0.0013,-0.0015, 0.0130,-0.0094,-0.0117,-0.0107,-0.0077, 0.0032,-0.4668
17-Jan-2019 10:34:22.232,-0.0064,-0.0056,-0.9908, 0.0011,-0.0003, 0.0158,-0.0105,-0.0128,-0.0129,-0.0077, 0.0032,-0.4668
17-Jan-2019 10:34:22.272,-0.0082,-0.0060,-0.9908, 0.0001, 0.0005, 0.0074,-0.0115,-0.0170,-0.0118,-0.0077, 0.0032,-0.4668
17-Jan-2019 10:34:22.311,-0.0083,-0.0019,-0.9842, 0.0011,-0.0030, 0.0066,-0.0115,-0.0160,-0.0129,-0.0077, 0.0032,-0.4668
17-Jan-2019 10:34:22.350,-0.0061,-0.0071,-0.9896, 0.0005,-0.0035, 0.0152,-0.0095,-0.0096,-0.0118,-0.0077, 0.0031,-0.4669
17-Jan-2019 10:34:22.390,-0.0060,-0.0035,-0.9842, 0.0012, 0.0000, 0.0185,-0.0116,-0.0138,-0.0118,-0.0077, 0.0031,-0.4669
17-Jan-2019 10:34:22.430,-0.0064,-0.0042,-0.9656, 0.0014,-0.0007, 0.0204,-0.0115,-0.0149,-0.0118,-0.0077, 0.0031,-0.4669
17-Jan-2019 10:34:22.471,-0.0069,-0.0034,-0.9305, 0.0004,-0.0027, 0.0543,-0.0105,-0.0149,-0.0118,-0.0077, 0.0031,-0.4669
17-Jan-2019 10:34:22.510,-0.0073,-0.0055,-0.9266,-0.0003,-0.0003, 0.0733,-0.0094,-0.0106,-0.0107,-0.0076, 0.0030,-0.4669
17-Jan-2019 10:34:22.549,-0.0073,-0.0042,-0.9255,-0.0002,-0.0001, 0.0798,-0.0105,-0.0106,-0.0129,-0.0076, 0.0030,-0.4669
17-Jan-2019 10:34:22.589,-0.0073,-0.0032,-0.9379, 0.0004,-0.0012, 0.0630,-0.0105,-0.0170,-0.0118,-0.0076, 0.0030,-0.4669
17-Jan-2019 10:34:22.629,-0.0089,-0.0030,-0.9562, 0.0010,-0.0013, 0.0452,-0.0094,-0.0138,-0.0129,-0.0076, 0.0030,-0.4669
17-Jan-2019 10:34:22.669,-0.0081,-0.0058,-0.9717,-0.0003,-0.0010, 0.0330,-0.0094,-0.0128,-0.0118,-0.0077, 0.0030,-0.4670
17-Jan-2019 10:34:22.709,-0.0077,-0.0038,-0.9721, 0.0017,-0.0007, 0.0286,-0.0105,-0.0149,-0.0107,-0.0076, 0.0030,-0.4670
17-Jan-2019 10:34:22.749,-0.0078,-0.0031,-0.9606, 0.0017,-0.0026, 0.0322,-0.0105,-0.0170,-0.0118,-0.0076, 0.0030,-0.4670
17-Jan-2019 10:34:22.786,-0.0067,-0.0030,-0.9422, 0.0011,-0.0038, 0.0483,-0.0105,-0.0149,-0.0129,-0.0076, 0.0030,-0.4670
17-Jan-2019 10:34:22.827,-0.0062,-0.0058,-0.9224, 0.0011,-0.0001, 0.0752,-0.0105,-0.0128,-0.0118,-0.0076, 0.0030,-0.4670
17-Jan-2019 10:34:22.866,-0.0065,-0.0047,-0.9028, 0.0027,-0.0006, 0.0928,-0.0094,-0.0128,-0.0118,-0.0076, 0.0030,-0.4670
17-Jan-2019 10:34:22.905,-0.0057,-0.0017,-0.8928, 0.0017,-0.0006, 0.1034,-0.0105,-0.0138,-0.0118,-0.0075, 0.0030,-0.4670
17-Jan-2019 10:34:22.945,-0.0046,-0.0032,-0.8955, 0.0010,-0.0016, 0.1037,-0.0105,-0.0138,-0.0118,-0.0075, 0.0030,-0.4671
17-Jan-2019 10:34:22.985,-0.0057,-0.0063,-0.9055, 0.0016,-0.0025, 0.0969,-0.0116,-0.0138,-0.0107,-0.0076, 0.0030,-0.4671
17-Jan-2019 10:34:23.026,-0.0073,-0.0038,-0.9161,-0.0004,-0.0013, 0.0871,-0.0084,-0.0138,-0.0118,-0.0076, 0.0030,-0.4670
17-Jan-2019 10:34:23.065,-0.0068,-0.0040,-0.9278, 0.0013,-0.0020, 0.0773,-0.0105,-0.0149,-0.0129,-0.0076, 0.0030,-0.4671
17-Jan-2019 10:34:23.105,-0.0075,-0.0040,-0.9342, 0.0017, 0.0011, 0.0691,-0.0073,-0.0138,-0.0128,-0.0076, 0.0030,-0.4671
17-Jan-2019 10:34:23.146,-0.0069,-0.0041,-0.9354, 0.0011, 0.0005, 0.0624,-0.0105,-0.0149,-0.0107,-0.0077, 0.0030,-0.4671
17-Jan-2019 10:34:23.185,-0.0076,-0.0018,-0.9348, 0.0016,-0.0004, 0.0654,-0.0116,-0.0128,-0.0107,-0.0076, 0.0030,-0.4671
17-Jan-2019 10:34:23.225,-0.0066,-0.0029,-0.9309, 0.0012,-0.0005, 0.0729,-0.0084,-0.0128,-0.0118,-0.0076, 0.0030,-0.4671
17-Jan-2019 10:34:23.265,-0.0058,-0.0045,-0.9238, 0.0014,-0.0007, 0.0730,-0.0116,-0.0138,-0.0118,-0.0076, 0.0029,-0.4671
17-Jan-2019 10:34:23.305,-0.0057,-0.0049,-0.9179, 0.0007,-0.0021, 0.0776,-0.0105,-0.0117,-0.0118,-0.0076, 0.0029,-0.4671
17-Jan-2019 10:34:23.343,-0.0063,-0.0036,-0.9209, 0.0007,-0.0015, 0.0824,-0.0105,-0.0138,-0.0107,-0.0076, 0.0029,-0.4671
17-Jan-2019 10:34:23.384,-0.0076,-0.0050,-0.9209,-0.0003,-0.0029, 0.0794,-0.0105,-0.0149,-0.0118,-0.0076, 0.0029,-0.4671
17-Jan-2019 10:34:23.423,-0.0071,-0.0044,-0.9248,-0.0000,-0.0020, 0.0738,-0.0105,-0.0160,-0.0129,-0.0077, 0.0030,-0.4671
17-Jan-2019 10:34:23.463,-0.0061,-0.0035,-0.9298, 0.0006,-0.0016, 0.0709,-0.0094,-0.0128,-0.0118,-0.0077, 0.0030,-0.4671
17-Jan-2019 10:34:23.503,-0.0066,-0.0039,-0.9316, 0.0006,-0.0002, 0.0700,-0.0094,-0.0117,-0.0118,-0.0077, 0.0030,-0.4670
17-Jan-2019 10:34:23.541,-0.0075,-0.0031,-0.9333, 0.0013, 0.0002, 0.0647,-0.0105,-0.0160,-0.0107,-0.0077, 0.0030,-0.4670
17-Jan-2019 10:34:23.580,-0.0081,-0.0030,-0.9392,-0.0002, 0.0016, 0.0608,-0.0094,-0.0138,-0.0129,-0.0077, 0.0030,-0.4671
17-Jan-2019 10:34:23.620,-0.0052,-0.0045,-0.9472, 0.0034,-0.0017, 0.0579,-0.0105,-0.0149,-0.0118,-0.0077, 0.0030,-0.4671
17-Jan-2019 10:34:23.660,-0.0075,-0.0043,-0.9505, 0.0018,-0.0012, 0.0505,-0.0116,-0.0117,-0.0129,-0.0077, 0.0030,-0.4672
17-Jan-2019 10:34:23.700,-0.0055,-0.0066,-0.9559, 0.0011,-0.0028, 0.0436,-0.0083,-0.0149,-0.0129,-0.0077, 0.0030,-0.4672
17-Jan-2019 10:34:23.740,-0.0079,-0.0015,-0.9645, 0.0004,-0.0015, 0.0388,-0.0105,-0.0149,-0.0118,-0.0077, 0.0030,-0.4672
17-Jan-2019 10:34:23.780,-0.0068,-0.0054,-0.9714,-0.0010,-0.0006, 0.0305,-0.0105,-0.0138,-0.0118,-0.0077, 0.0030,-0.4672
17-Jan-2019 10:34:23.819,-0.0073,-0.0045,-0.9774,-0.0006,-0.0025, 0.0223,-0.0094,-0.0138,-0.0107,-0.0077, 0.0031,-0.4672
17-Jan-2019 10:34:23.859,-0.0076,-0.0029,-0.9854, 0.0004, 0.0012, 0.0173,-0.0094,-0.0128,-0.0118,-0.0077, 0.0031,-0.4672
17-Jan-2019 10:34:23.899,-0.0077,-0.0047,-0.9920, 0.0010,-0.0018, 0.0127,-0.0084,-0.0149,-0.0118,-0.0077, 0.0031,-0.4672
17-Jan-2019 10:34:23.939,-0.0082,-0.0030,-0.9903, 0.0016,-0.0001, 0.0066,-0.0105,-0.0149,-0.0118,-0.0078, 0.0031,-0.4672
17-Jan-2019 10:34:23.979,-0.0081,-0.0045,-0.9910, 0.0003,-0.0004, 0.0056,-0.0105,-0.0138,-0.0129,-0.0078, 0.0031,-0.4672
17-Jan-2019 10:34:24.019,-0.0064,-0.0037,-0.9947, 0.0022,-0.0006, 0.0095,-0.0105,-0.0138,-0.0118,-0.0077, 0.0031,-0.4672
17-Jan-2019 10:34:24.060,-0.0066,-0.0048,-0.9919, 0.0011,-0.0011, 0.0100,-0.0094,-0.0138,-0.0118,-0.0077, 0.0031,-0.4672
17-Jan-2019 10:34:24.099,-0.0067,-0.0031,-0.9871,-0.0003,-0.0005, 0.0075,-0.0115,-0.0149,-0.0129,-0.0078, 0.0031,-0.4672
17-Jan-2019 10:34:24.138,-0.0064,-0.0040,-0.9871,-0.0001,-0.0016, 0.0109,-0.0094,-0.0128,-0.0129,-0.0077, 0.0031,-0.4672
17-Jan-2019 10:34:24.177,-0.0085,-0.0026,-0.9853,-0.0005,-0.0008, 0.0173,-0.0116,-0.0138,-0.0107,-0.0077, 0.0031,-0.4672
17-Jan-2019 10:34:24.217,-0.0078,-0.0053,-0.9828,-0.0001,-0.0025, 0.0167,-0.0094,-0.0138,-0.0129,-0.0077, 0.0032,-0.4672
17-Jan-2019 10:34:24.259,-0.0066,-0.0050,-0.9855, 0.0008,-0.0009, 0.0148,-0.0094,-0.0138,-0.0118,-0.0077, 0.0031,-0.4672
17-Jan-2019 10:34:24.298,-0.0075,-0.0040,-0.9874, 0.0005,-0.0015, 0.0156,-0.0094,-0.0149,-0.0129,-0.0077, 0.0032,-0.4672
17-Jan-2019 10:34:24.342,-0.0067,-0.0037,-0.9858, 0.0000,-0.0006, 0.0127,-0.0094,-0.0149,-0.0107,-0.0077, 0.0032,-0.4672
17-Jan-2019 10:34:24.376,-0.0076,-0.0044,-0.9851, 0.0010,-0.0002, 0.0121,-0.0116,-0.0128,-0.0129,-0.0078, 0.0032,-0.4672
17-Jan-2019 10:34:24.417,-0.0070,-0.0024,-0.9898,-0.0001,-0.0008, 0.0128,-0.0115,-0.0128,-0.0139,-0.0077, 0.0032,-0.4672
17-Jan-2019 10:34:24.458,-0.0070,-0.0038,-0.9904, 0.0008,-0.0010, 0.0143,-0.0094,-0.0159,-0.0129,-0.0078, 0.0032,-0.4672
17-Jan-2019 10:34:24.497,-0.0073,-0.0037,-0.9854, 0.0007,-0.0003, 0.0098,-0.0115,-0.0138,-0.0129,-0.0077, 0.0032,-0.4672
17-Jan-2019 10:34:24.536,-0.0063,-0.0059,-0.9865, 0.0004,-0.0014, 0.0115,-0.0126,-0.0138,-0.0107,-0.0077, 0.0032,-0.4672
17-Jan-2019 10:34:24.576,-0.0073,-0.0050,-0.9863, 0.0005,-0.0007, 0.0164,-0.0105,-0.0149,-0.0139,-0.0077, 0.0032,-0.4672
17-Jan-2019 10:34:24.616,-0.0075,-0.0027,-0.9823,-0.0011, 0.0002, 0.0158,-0.0105,-0.0128,-0.0129,-0.0077, 0.0032,-0.4672
17-Jan-2019 10:34:24.656,-0.0059,-0.0047,-0.9826, 0.0016,-0.0019, 0.0139,-0.0094,-0.0127,-0.0139,-0.0077, 0.0032,-0.4673
17-Jan-2019 10:34:24.694,-0.0077,-0.0030,-0.9874,-0.0008,-0.0003, 0.0174,-0.0105,-0.0138,-0.0118,-0.0077, 0.0032,-0.4673
17-Jan-2019 10:34:24.733,-0.0084,-0.0050,-0.9870, 0.0007,-0.0026, 0.0173,-0.0094,-0.0149,-0.0118,-0.0078, 0.0032,-0.4673
17-Jan-2019 10:34:24.773,-0.0077,-0.0040,-0.9875,-0.0007,-0.0006, 0.0095,-0.0105,-0.0149,-0.0129,-0.0077, 0.0032,-0.4673
17-Jan-2019 10:34:24.813,-0.0073,-0.0047,-0.9912, 0.0022,-0.0014, 0.0074,-0.0105,-0.0128,-0.0118,-0.0077, 0.0032,-0.4673
17-Jan-2019 10:34:24.853,-0.0081,-0.0036,-0.9915,-0.0008,-0.0002, 0.0095,-0.0105,-0.0149,-0.0129,-0.0077, 0.0032,-0.4673
17-Jan-2019 10:34:24.893,-0.0086,-0.0040,-0.9853,-0.0001,-0.0011, 0.0140,-0.0105,-0.0128,-0.0118,-0.0077, 0.0032,-0.4674
17-Jan-2019 10:34:24.934,-0.0058,-0.0045,-0.9849, 0.0006,-0.0010, 0.0128,-0.0105,-0.0138,-0.0118,-0.0077, 0.0032,-0.4674
17-Jan-2019 10:34:24.973,-0.0079,-0.0038,-0.9852,-0.0005,-0.0021, 0.0155,-0.0105,-0.0149,-0.0118,-0.0077, 0.0032,-0.4674
17-Jan-2019 10:34:25.012,-0.0078,-0.0044,-0.9860,-0.0009,-0.0007, 0.0167,-0.0115,-0.0149,-0.0118,-0.0076, 0.0032,-0.4674
17-Jan-2019 10:34:25.053,-0.0068,-0.0033,-0.9841, 0.0003, 0.0004, 0.0121,-0.0116,-0.0128,-0.0107,-0.0076, 0.0032,-0.4674
17-Jan-2019 10:34:25.093,-0.0078,-0.0045,-0.9878,-0.0001,-0.0017, 0.0110,-0.0105,-0.0128,-0.0118,-0.0076, 0.0032,-0.4674
17-Jan-2019 10:34:25.132,-0.0066,-0.0041,-0.9894, 0.0006,-0.0012, 0.0141,-0.0105,-0.0149,-0.0107,-0.0076, 0.0032,-0.4674
17-Jan-2019 10:34:25.171,-0.0074,-0.0036,-0.9868, 0.0008,-0.0010, 0.0114,-0.0105,-0.0160,-0.0129,-0.0076, 0.0033,-0.4674
17-Jan-2019 10:34:25.212,-0.0070,-0.0044,-0.9863, 0.0005,-0.0003, 0.0113,-0.0105,-0.0138,-0.0118,-0.0076, 0.0033,-0.4674
17-Jan-2019 10:34:25.252,-0.0077,-0.0042,-0.9875, 0.0007,-0.0012, 0.0148,-0.0094,-0.0149,-0.0118,-0.0076, 0.0033,-0.4674
17-Jan-2019 10:34:25.291,-0.0076,-0.0041,-0.9854,-0.0007,-0.0009, 0.0162,-0.0116,-0.0138,-0.0118,-0.0076, 0.0033,-0.4674
17-Jan-2019 10:34:25.333,-0.0073,-0.0038,-0.9825, 0.0002,-0.0006, 0.0128,-0.0084,-0.0128,-0.0118,-0.0075, 0.0033,-0.4674
17-Jan-2019 10:34:25.369,-0.0078,-0.0034,-0.9848,-0.0012, 0.0001, 0.0161,-0.0105,-0.0138,-0.0118,-0.0075, 0.0033,-0.4674
17-Jan-2019 10:34:25.409,-0.0075,-0.0033,-0.9860, 0.0001,-0.0002, 0.0168,-0.0094,-0.0138,-0.0118,-0.0075, 0.0033,-0.4674
17-Jan-2019 10:34:25.451,-0.0078,-0.0075,-0.9852,-0.0003,-0.0035, 0.0118,-0.0105,-0.0128,-0.0129,-0.0075, 0.0033,-0.4674
17-Jan-2019 10:34:25.489,-0.0067,-0.0054,-0.9851, 0.0017,-0.0018, 0.0098,-0.0094,-0.0128,-0.0118,-0.0075, 0.0034,-0.4675
17-Jan-2019 10:34:25.530,-0.0076,-0.0036,-0.9865,-0.0013,-0.0008, 0.0162,-0.0105,-0.0128,-0.0107,-0.0075, 0.0034,-0.4674
17-Jan-2019 10:34:25.569,-0.0067,-0.0024,-0.9838, 0.0018, 0.0008, 0.0162,-0.0094,-0.0149,-0.0107,-0.0075, 0.0034,-0.4674
17-Jan-2019 10:34:25.609,-0.0075,-0.0008,-0.9886, 0.0007, 0.0017, 0.0084,-0.0105,-0.0149,-0.0139,-0.0075, 0.0034,-0.4674
17-Jan-2019 10:34:25.649,-0.0078,-0.0069,-0.9918,-0.0006,-0.0023, 0.0088,-0.0105,-0.0149,-0.0118,-0.0075, 0.0034,-0.4674
17-Jan-2019 10:34:25.688,-0.0084,-0.0026,-0.9921,-0.0014,-0.0012, 0.0115,-0.0094,-0.0138,-0.0118,-0.0075, 0.0034,-0.4674
17-Jan-2019 10:34:25.728,-0.0085,-0.0040,-0.9852, 0.0004,-0.0002, 0.0119,-0.0094,-0.0149,-0.0129,-0.0075, 0.0034,-0.4674
17-Jan-2019 10:34:25.768,-0.0066,-0.0004,-0.9837, 0.0004,-0.0005, 0.0150,-0.0094,-0.0128,-0.0118,-0.0075, 0.0034,-0.4674
17-Jan-2019 10:34:25.808,-0.0083,-0.0073,-0.9813, 0.0001,-0.0024, 0.0195,-0.0105,-0.0128,-0.0129,-0.0075, 0.0034,-0.4674
17-Jan-2019 10:34:25.848,-0.0074,-0.0022,-0.9844, 0.0009, 0.0004, 0.0169,-0.0094,-0.0138,-0.0118,-0.0075, 0.0034,-0.4674
17-Jan-2019 10:34:25.888,-0.0077,-0.0070,-0.9841,-0.0007,-0.0019, 0.0138,-0.0094,-0.0128,-0.0129,-0.0075, 0.0034,-0.4674
17-Jan-2019 10:34:25.927,-0.0061,-0.0038,-0.9885, 0.0003,-0.0017, 0.0125,-0.0105,-0.0138,-0.0107,-0.0075, 0.0034,-0.4674
17-Jan-2019 10:34:25.967,-0.0068,-0.0047,-0.9889, 0.0006,-0.0020, 0.0161,-0.0105,-0.0138,-0.0118,-0.0075, 0.0035,-0.4674
17-Jan-2019 10:34:26.006,-0.0080,-0.0026,-0.9882,-0.0008, 0.0004, 0.0112,-0.0094,-0.0138,-0.0129,-0.0075, 0.0035,-0.4674
17-Jan-2019 10:34:26.046,-0.0076,-0.0048,-0.9884,-0.0009,-0.0010, 0.0108,-0.0105,-0.0128,-0.0107,-0.0075, 0.0035,-0.4674
17-Jan-2019 10:34:26.086,-0.0078,-0.0039,-0.9890, 0.0015,-0.0016, 0.0127,-0.0105,-0.0149,-0.0118,-0.0075, 0.0034,-0.4674
17-Jan-2019 10:34:26.125,-0.0056,-0.0038,-0.9858, 0.0001, 0.0000, 0.0146,-0.0094,-0.0149,-0.0107,-0.0075, 0.0034,-0.4674
17-Jan-2019 10:34:26.165,-0.0072,-0.0039,-0.9846, 0.0015,-0.0021, 0.0154,-0.0094,-0.0138,-0.0118,-0.0074, 0.0034,-0.4674
17-Jan-2019 10:34:26.206,-0.0071,-0.0033,-0.9875,-0.0006,-0.0008, 0.0153,-0.0105,-0.0138,-0.0118,-0.0075, 0.0034,-0.4674
17-Jan-2019 10:34:26.244,-0.0085,-0.0042,-0.9884, 0.0001,-0.0001, 0.0135,-0.0105,-0.0149,-0.0139,-0.0075, 0.0034,-0.4674
17-Jan-2019 10:34:26.284,-0.0060,-0.0041,-0.9860, 0.0012,-0.0009, 0.0109,-0.0105,-0.0138,-0.0129,-0.0074, 0.0034,-0.4674
17-Jan-2019 10:34:26.323,-0.0083,-0.0038,-0.9855,-0.0019,-0.0006, 0.0119,-0.0094,-0.0138,-0.0118,-0.0074, 0.0034,-0.4674
17-Jan-2019 10:34:26.363,-0.0086,-0.0038,-0.9904, 0.0004,-0.0008, 0.0145,-0.0083,-0.0149,-0.0129,-0.0075, 0.0034,-0.4674
17-Jan-2019 10:34:26.403,-0.0064,-0.0052,-0.9856, 0.0011,-0.0016, 0.0123,-0.0105,-0.0149,-0.0129,-0.0074, 0.0035,-0.4674
17-Jan-2019 10:34:26.444,-0.0073,-0.0039,-0.9813,-0.0014,-0.0008, 0.0133,-0.0094,-0.0138,-0.0118,-0.0075, 0.0035,-0.4674
17-Jan-2019 10:34:26.482,-0.0074,-0.0042,-0.9826,-0.0001,-0.0012, 0.0195,-0.0094,-0.0149,-0.0107,-0.0075, 0.0035,-0.4674
17-Jan-2019 10:34:26.521,-0.0076,-0.0046,-0.9847, 0.0007,-0.0013, 0.0189,-0.0094,-0.0138,-0.0118,-0.0075, 0.0035,-0.4674
17-Jan-2019 10:34:26.562,-0.0080,-0.0013,-0.9635, 0.0004, 0.0011, 0.0254,-0.0105,-0.0128,-0.0118,-0.0075, 0.0035,-0.4674
17-Jan-2019 10:34:26.603,-0.0050,-0.0051,-0.9329, 0.0005,-0.0016, 0.0565,-0.0084,-0.0117,-0.0107,-0.0074, 0.0035,-0.4674
17-Jan-2019 10:34:26.641,-0.0082,-0.0028,-0.9159, 0.0012,-0.0000, 0.0817,-0.0116,-0.0128,-0.0118,-0.0074, 0.0035,-0.4674
17-Jan-2019 10:34:26.682,-0.0063,-0.0030,-0.9120, 0.0005, 0.0000, 0.0900,-0.0105,-0.0149,-0.0129,-0.0074, 0.0035,-0.4674
17-Jan-2019 10:34:26.721,-0.0074,-0.0056,-0.9180,-0.0005,-0.0004, 0.0823,-0.0094,-0.0128,-0.0118,-0.0073, 0.0035,-0.4674
17-Jan-2019 10:34:26.762,-0.0082,-0.0055,-0.9802, 0.0018,-0.0002, 0.0287,-0.0073,-0.0074,-0.0118,-0.0073, 0.0035,-0.4674
17-Jan-2019 10:34:26.800,-0.0037,-0.0021,-0.9830,-0.0005, 0.0009, 0.0183,-0.0115,-0.0160,-0.0118,-0.0073, 0.0035,-0.4674
17-Jan-2019 10:34:26.841,-0.0107,-0.0059,-0.9856,-0.0036, 0.0010, 0.0123,-0.0105,-0.0117,-0.0118,-0.0073, 0.0035,-0.4674
17-Jan-2019 10:34:26.879,-0.0037,-0.0019,-0.9973, 0.0046, 0.0000, 0.0045,-0.0126,-0.0138,-0.0118,-0.0073, 0.0035,-0.4674
17-Jan-2019 10:34:26.921,-0.0082,-0.0059,-0.9902,-0.0059,-0.0014, 0.0102,-0.0095,-0.0096,-0.0107,-0.0073, 0.0035,-0.4674
17-Jan-2019 10:34:26.958,-0.0062,-0.0024,-0.9897, 0.0000,-0.0003, 0.0119,-0.0126,-0.0149,-0.0129,-0.0073, 0.0035,-0.4674
17-Jan-2019 10:34:26.998,-0.0090,-0.0050,-0.9860,-0.0004,-0.0030, 0.0158,-0.0116,-0.0138,-0.0118,-0.0073, 0.0036,-0.4674
17-Jan-2019 10:34:27.040,-0.0041,-0.0050,-0.9869,-0.0001,-0.0020, 0.0151,-0.0105,-0.0149,-0.0107,-0.0073, 0.0036,-0.4674
17-Jan-2019 10:34:27.079,-0.0045,-0.0031,-0.9845, 0.0002,-0.0003, 0.0130,-0.0094,-0.0149,-0.0107,-0.0073, 0.0036,-0.4674
17-Jan-2019 10:34:27.119,-0.0035,-0.0045,-0.9835,-0.0025, 0.0002, 0.0134,-0.0116,-0.0128,-0.0129,-0.0073, 0.0036,-0.4674
17-Jan-2019 10:34:27.158,-0.0067,-0.0020,-0.9862, 0.0005, 0.0002, 0.0132,-0.0105,-0.0149,-0.0118,-0.0073, 0.0036,-0.4674
17-Jan-2019 10:34:27.198,-0.0036,-0.0026,-0.9869, 0.0004,-0.0034, 0.0132,-0.0126,-0.0170,-0.0118,-0.0074, 0.0035,-0.4675
17-Jan-2019 10:34:27.239,-0.0058,-0.0037,-0.9845,-0.0006,-0.0009, 0.0137,-0.0126,-0.0149,-0.0118,-0.0074, 0.0035,-0.4674
17-Jan-2019 10:34:27.277,-0.0069,-0.0066,-0.9855,-0.0010,-0.0018, 0.0134,-0.0126,-0.0149,-0.0139,-0.0074, 0.0035,-0.4675
17-Jan-2019 10:34:27.318,-0.0088,-0.0034,-0.9874, 0.0009, 0.0024, 0.0138,-0.0073,-0.0138,-0.0118,-0.0074, 0.0035,-0.4675
17-Jan-2019 10:34:27.356,-0.0070,-0.0046,-0.9823,-0.0000,-0.0017, 0.0145,-0.0105,-0.0149,-0.0107,-0.0074, 0.0035,-0.4674
17-Jan-2019 10:34:27.396,-0.0053,-0.0029,-0.9869, 0.0003,-0.0021, 0.0150,-0.0094,-0.0149,-0.0129,-0.0074, 0.0036,-0.4674
17-Jan-2019 10:34:27.437,-0.0072,-0.0039,-0.9874,-0.0011,-0.0014, 0.0122,-0.0094,-0.0117,-0.0118,-0.0074, 0.0036,-0.4674
17-Jan-2019 10:34:27.475,-0.0049,-0.0049,-0.9858, 0.0009,-0.0010, 0.0148,-0.0105,-0.0138,-0.0118,-0.0074, 0.0036,-0.4674
17-Jan-2019 10:34:27.516,-0.0070,-0.0020,-0.9858,-0.0008,-0.0003, 0.0126,-0.0094,-0.0128,-0.0118,-0.0075, 0.0036,-0.4674
17-Jan-2019 10:34:27.556,-0.0060,-0.0042,-0.9863,-0.0000,-0.0019, 0.0133,-0.0115,-0.0149,-0.0129,-0.0075, 0.0036,-0.4675
17-Jan-2019 10:34:27.594,-0.0090,-0.0033,-0.9862, 0.0002, 0.0023, 0.0139,-0.0105,-0.0128,-0.0139,-0.0074, 0.0036,-0.4675
17-Jan-2019 10:34:27.636,-0.0087,-0.0036,-0.9876, 0.0031,-0.0013, 0.0128,-0.0105,-0.0138,-0.0107,-0.0075, 0.0036,-0.4674
17-Jan-2019 10:34:27.675,-0.0053,-0.0043,-0.9863, 0.0020, 0.0001, 0.0128,-0.0116,-0.0138,-0.0118,-0.0075, 0.0036,-0.4674
17-Jan-2019 10:34:27.715,-0.0068,-0.0031,-0.9879, 0.0007, 0.0004, 0.0131,-0.0105,-0.0138,-0.0118,-0.0075, 0.0036,-0.4675
17-Jan-2019 10:34:27.754,-0.0058,-0.0049,-0.9869, 0.0001,-0.0027, 0.0132,-0.0105,-0.0128,-0.0129,-0.0075, 0.0036,-0.4675
17-Jan-2019 10:34:27.794,-0.0066,-0.0028,-0.9866, 0.0007, 0.0017, 0.0123,-0.0105,-0.0149,-0.0129,-0.0075, 0.0036,-0.4675
17-Jan-2019 10:34:27.834,-0.0060,-0.0023,-0.9857, 0.0003,-0.0007, 0.0139,-0.0105,-0.0138,-0.0129,-0.0075, 0.0036,-0.4675
17-Jan-2019 10:34:27.873,-0.0069,-0.0033,-0.9864, 0.0006, 0.0013, 0.0133,-0.0105,-0.0138,-0.0118,-0.0075, 0.0036,-0.4675
17-Jan-2019 10:34:27.913,-0.0060,-0.0058,-0.9865, 0.0007,-0.0026, 0.0136,-0.0115,-0.0160,-0.0118,-0.0075, 0.0036,-0.4675
17-Jan-2019 10:34:27.951,-0.0066,-0.0032,-0.9863, 0.0015, 0.0009, 0.0134,-0.0105,-0.0138,-0.0118,-0.0075, 0.0036,-0.4675
17-Jan-2019 10:34:27.991,-0.0069,-0.0042,-0.9868, 0.0023, 0.0013, 0.0104,-0.0105,-0.0160,-0.0129,-0.0075, 0.0036,-0.4675
17-Jan-2019 10:34:28.031,-0.0051,-0.0043,-0.9846, 0.0006,-0.0016, 0.0135,-0.0094,-0.0117,-0.0118,-0.0075, 0.0036,-0.4675
17-Jan-2019 10:34:28.071,-0.0069,-0.0016,-0.9895,-0.0012, 0.0007, 0.0142,-0.0126,-0.0160,-0.0118,-0.0076, 0.0036,-0.4675
17-Jan-2019 10:34:28.111,-0.0064,-0.0072,-0.9862, 0.0005,-0.0029, 0.0169,-0.0105,-0.0128,-0.0129,-0.0076, 0.0036,-0.4675
17-Jan-2019 10:34:28.151,-0.0045, 0.0008,-0.9900, 0.0012, 0.0078, 0.0207,-0.0105,-0.0138,-0.0118,-0.0076, 0.0036,-0.4675
17-Jan-2019 10:34:28.190,-0.0091,-0.0058,-0.9834, 0.0034,-0.0054, 0.0099,-0.0073,-0.0159,-0.0128,-0.0076, 0.0036,-0.4675
17-Jan-2019 10:34:28.230,-0.0046, 0.0008,-0.9805,-0.0015, 0.0037, 0.0116,-0.0116,-0.0117,-0.0118,-0.0076, 0.0036,-0.4675
17-Jan-2019 10:34:28.270,-0.0086,-0.0071,-0.9877, 0.0061,-0.0003, 0.0163,-0.0115,-0.0138,-0.0129,-0.0076, 0.0036,-0.4675
17-Jan-2019 10:34:28.309,-0.0062,-0.0028,-0.9886,-0.0044, 0.0005, 0.0125,-0.0094,-0.0128,-0.0118,-0.0075, 0.0036,-0.4675
17-Jan-2019 10:34:28.349,-0.0048,-0.0043,-0.9857, 0.0057,-0.0018, 0.0109,-0.0115,-0.0181,-0.0129,-0.0076, 0.0035,-0.4675
17-Jan-2019 10:34:28.389,-0.0089,-0.0036,-0.9866,-0.0018,-0.0001, 0.0150,-0.0105,-0.0085,-0.0139,-0.0075, 0.0035,-0.4675
17-Jan-2019 10:34:28.430,-0.0055,-0.0057,-0.9890, 0.0036,-0.0019, 0.0137,-0.0094,-0.0191,-0.0129,-0.0076, 0.0035,-0.4675
17-Jan-2019 10:34:28.469,-0.0069,-0.0052,-0.9840,-0.0033, 0.0023, 0.0119,-0.0073,-0.0106,-0.0118,-0.0075, 0.0036,-0.4675
17-Jan-2019 10:34:28.508,-0.0068,-0.0036,-0.9878, 0.0041, 0.0001, 0.0136,-0.0147,-0.0170,-0.0118,-0.0076, 0.0035,-0.4676
17-Jan-2019 10:34:28.548,-0.0103,-0.0038,-0.9877,-0.0004,-0.0038, 0.0097,-0.0094,-0.0117,-0.0139,-0.0076, 0.0036,-0.4676
17-Jan-2019 10:34:28.588,-0.0045,-0.0050,-0.9852, 0.0023,-0.0007, 0.0135,-0.0115,-0.0149,-0.0129,-0.0076, 0.0036,-0.4676
17-Jan-2019 10:34:28.628,-0.0078,-0.0060,-0.9885, 0.0025,-0.0027, 0.0125,-0.0105,-0.0160,-0.0118,-0.0076, 0.0036,-0.4676
17-Jan-2019 10:34:28.667,-0.0072,-0.0041,-0.9857, 0.0002, 0.0013, 0.0111,-0.0105,-0.0106,-0.0118,-0.0076, 0.0036,-0.4676
17-Jan-2019 10:34:28.707,-0.0069,-0.0063,-0.9858,-0.0010,-0.0028, 0.0121,-0.0105,-0.0160,-0.0107,-0.0076, 0.0035,-0.4676
17-Jan-2019 10:34:28.748,-0.0084,-0.0038,-0.9872,-0.0020, 0.0026, 0.0150,-0.0094,-0.0096,-0.0128,-0.0076, 0.0035,-0.4676
17-Jan-2019 10:34:28.786,-0.0087,-0.0059,-0.9906, 0.0017,-0.0028, 0.0107,-0.0137,-0.0170,-0.0129,-0.0076, 0.0035,-0.4676
17-Jan-2019 10:34:28.826,-0.0086,-0.0028,-0.9838, 0.0015, 0.0012, 0.0119,-0.0062,-0.0117,-0.0118,-0.0076, 0.0036,-0.4676
17-Jan-2019 10:34:28.867,-0.0059,-0.0039,-0.9888, 0.0003,-0.0039, 0.0148,-0.0126,-0.0117,-0.0129,-0.0076, 0.0036,-0.4676
17-Jan-2019 10:34:28.906,-0.0062,-0.0058,-0.9879, 0.0012, 0.0009, 0.0123,-0.0073,-0.0149,-0.0107,-0.0076, 0.0036,-0.4676
17-Jan-2019 10:34:28.945,-0.0101,-0.0013,-0.9873, 0.0004, 0.0017, 0.0139,-0.0116,-0.0128,-0.0118,-0.0076, 0.0035,-0.4676
17-Jan-2019 10:34:28.986,-0.0061,-0.0063,-0.9881, 0.0011,-0.0027, 0.0122,-0.0126,-0.0138,-0.0129,-0.0076, 0.0035,-0.4676
17-Jan-2019 10:34:29.025,-0.0079,-0.0030,-0.9847,-0.0020, 0.0005, 0.0159,-0.0073,-0.0106,-0.0118,-0.0076, 0.0036,-0.4676
17-Jan-2019 10:34:29.064,-0.0083,-0.0028,-0.9882, 0.0008,-0.0028, 0.0108,-0.0083,-0.0159,-0.0129,-0.0076, 0.0035,-0.4677
17-Jan-2019 10:34:29.106,-0.0101,-0.0059,-0.9859,-0.0003,-0.0020, 0.0132,-0.0094,-0.0117,-0.0118,-0.0076, 0.0035,-0.4677
17-Jan-2019 10:34:29.144,-0.0046,-0.0013,-0.9868,-0.0005, 0.0030, 0.0130,-0.0126,-0.0138,-0.0118,-0.0076, 0.0035,-0.4677
17-Jan-2019 10:34:29.183,-0.0083,-0.0051,-0.9862, 0.0009,-0.0019, 0.0134,-0.0094,-0.0160,-0.0107,-0.0077, 0.0035,-0.4677
17-Jan-2019 10:34:29.224, 0.0052,-0.0067,-1.0215, 0.0024,-0.0021, 0.0113,-0.0783,-0.2218,-0.0114,-0.0094, 0.0029,-0.4676
17-Jan-2019 10:34:29.264, 0.3695, 0.0575,-1.1071, 0.0335,-0.0115,-0.0722,-0.2431,-0.6810,-0.4648,-0.0129, 0.0016,-0.4723
17-Jan-2019 10:34:29.302,-0.0820,-0.0081,-0.8033,-0.1075, 0.1413,-0.0666,-0.4182,-0.1093,-0.8833,-0.0169,-0.0148,-0.5057
17-Jan-2019 10:34:29.351,-0.1815,-0.2381,-2.3457,-0.1264,-0.3267,-1.3512,-3.2565,-0.6231,-0.2411,-0.0553,-0.0888,-0.5277
17-Jan-2019 10:34:29.382,-1.3806,-0.0458,-2.7650,-0.2471,-0.1462,-1.6107,-7.9928,-5.7677, 2.5491,-0.1417,-0.3276,-0.5218
17-Jan-2019 10:34:29.421,-0.1624, 0.2291,-1.9672, 0.8938, 0.4399,-1.9804, 3.2169, 3.3003,-0.3125,-0.1340,-0.3221,-0.5355
17-Jan-2019 10:34:29.462,-0.0575, 0.1525,-1.5145,-0.1913, 0.1530,-0.6502, 0.1474, 2.4243,-1.3830,-0.0401,-0.2410,-0.5892
17-Jan-2019 10:34:29.501,-0.0253, 0.4853,-1.4921,-0.0109, 0.2060,-0.5980, 0.1261, 1.7404,-0.7100, 0.0284,-0.2624,-0.6351
17-Jan-2019 10:34:29.541, 0.1239, 0.5113,-1.3869,-0.0490, 0.3679,-0.4732, 0.8416, 1.6546, 0.3555, 0.0893,-0.2240,-0.6337
17-Jan-2019 10:34:29.581, 0.0646, 0.3707,-1.1371,-0.0924, 0.2712,-0.2083, 0.8168, 2.1289, 0.4095, 0.1773,-0.1905,-0.6198
17-Jan-2019 10:34:29.621, 0.2512, 0.3178,-1.0438,-0.0705, 0.1593,-0.0951, 1.0507, 1.5042, 0.4436, 0.2521,-0.1479,-0.6147
17-Jan-2019 10:34:29.661, 0.4023, 0.3201,-0.8542, 0.0822, 0.2390, 0.0452, 0.5908, 1.1177, 1.1640, 0.3023,-0.1059,-0.5880
17-Jan-2019 10:34:29.700, 0.1992, 0.1647,-0.8215,-0.0606, 0.0992, 0.1245, 0.3452, 0.0344, 1.0852, 0.3325,-0.0791,-0.5475
17-Jan-2019 10:34:29.740, 0.2290, 0.2148,-0.6918,-0.1219, 0.1990, 0.2215, 1.0413,-0.1212, 1.2780, 0.3170,-0.0317,-0.5139
17-Jan-2019 10:34:29.780, 0.2231, 0.0390,-0.5893,-0.1068, 0.0899, 0.3208, 1.0148, 1.1646, 0.4290, 0.3477, 0.0187,-0.4971
17-Jan-2019 10:34:29.820, 0.2627,-0.0645,-0.5274,-0.1113,-0.0008, 0.3711, 1.3188, 0.1663, 0.5672, 0.3778, 0.0678,-0.4975
17-Jan-2019 10:34:29.859, 0.2280,-0.0416,-0.5070,-0.0866, 0.1156, 0.4642, 0.9636,-1.9678, 0.8226, 0.3266, 0.1280,-0.4839
17-Jan-2019 10:34:29.899,-0.5780,-0.2113,-0.8221,-0.1941,-0.0002, 0.3118,-0.1468,-1.3871,-1.0557, 0.2326, 0.1328,-0.4809
17-Jan-2019 10:34:29.939, 0.0819, 0.0601,-0.8287,-0.3482, 0.1584, 0.0701, 2.1186,-0.8011,-1.5174, 0.2049, 0.1566,-0.5817
17-Jan-2019 10:34:29.978, 0.2376,-0.2324,-0.7235, 0.0970, 0.0952, 0.2704, 1.7921,-0.2319,-0.0735, 0.2022, 0.2392,-0.6024
17-Jan-2019 10:34:30.018, 0.1967,-0.1405,-0.6798,-0.0237, 0.1471, 0.2378, 1.5580, 0.3197,-0.1855, 0.2157, 0.2964,-0.6230
17-Jan-2019 10:34:30.058, 0.2362,-0.2447,-0.5502, 0.0675, 0.1728, 0.3254, 1.7516, 0.0742, 0.1495, 0.2277, 0.3626,-0.6369
17-Jan-2019 10:34:30.097, 0.0759,-0.3080,-0.4955,-0.1363, 0.1004, 0.4131, 1.5692, 0.3021, 0.1256, 0.2385, 0.4312,-0.6458
17-Jan-2019 10:34:30.137, 0.3972,-0.3561,-0.5377, 0.1214, 0.0363, 0.4376, 0.3515,-0.3899, 0.2503, 0.2348, 0.4703,-0.6513
17-Jan-2019 10:34:30.176, 0.0855,-0.4406,-0.7668,-0.0158, 0.0989, 0.1089, 0.7058,-0.3559, 0.8178, 0.2053, 0.4997,-0.6241
17-Jan-2019 10:34:30.216, 0.1271,-0.4525,-0.6130,-0.1418, 0.0956, 0.2078, 0.1920, 0.4420,-0.2497, 0.2094, 0.5209,-0.6204
