Timestamp,accelX(g),accelY(g),accelZ(g),accelUserX(g),accelUserY(g),accelUserZ(g),gyroX(rad/s),gyroY(rad/s),gyroZ(rad/s),Roll(rads),Pitch(rads),Yaw(rads)
17-Jan-2019 10:33:20.108, 0.0125, 0.0062,-0.9852, 0.0526,-0.0188,-0.0110,-0.0135,-0.0212,-0.0289, 0.0048, 0.0101,-0.7827
17-Jan-2019 10:33:20.132,-0.0607,-0.0013,-0.9821,-0.0608, 0.0199, 0.1348, 0.0186, 0.0885,-0.0115, 0.0046, 0.0100,-0.7835
17-Jan-2019 10:33:20.172,-0.0175, 0.0004,-0.9543,-0.0122, 0.0074, 0.0081, 0.0156, 0.0608,-0.0147, 0.0048, 0.0101,-0.7835
17-Jan-2019 10:33:20.212,-0.0051,-0.0084,-0.9966,-0.0189, 0.0041, 0.0314,-0.0168,-0.0309,-0.0108, 0.0045, 0.0100,-0.7835
17-Jan-2019 10:33:20.252,-0.0109,-0.0042,-0.9817,-0.0114, 0.0055, 0.0073,-0.0074,-0.0042,-0.0118, 0.0045, 0.0100,-0.7835
17-Jan-2019 10:33:20.293,-0.0076,-0.0098,-0.9900,-0.0143, 0.0032, 0.0153,-0.0147,-0.0192,-0.0108, 0.0045, 0.0100,-0.7835
17-Jan-2019 10:33:20.331,-0.0103,-0.0026,-0.9847,-0.0163, 0.0091, 0.0125,-0.0073,-0.0117,-0.0128, 0.0045, 0.0099,-0.7835
17-Jan-2019 10:33:20.371,-0.0069,-0.0068,-0.9843,-0.0103, 0.0018, 0.0123,-0.0116,-0.0138,-0.0107, 0.0044, 0.0099,-0.7835
17-Jan-2019 10:33:20.411,-0.0117,-0.0033,-0.9852,-0.0148, 0.0038, 0.0149,-0.0116,-0.0128,-0.0118, 0.0044, 0.0099,-0.7835
17-Jan-2019 10:33:20.450,-0.0077,-0.0047,-0.9868,-0.0123, 0.0035, 0.0154,-0.0105,-0.0160,-0.0129, 0.0043, 0.0099,-0.7835
17-Jan-2019 10:33:20.490,-0.0117,-0.0042,-0.9825,-0.0142, 0.0038, 0.0143,-0.0094,-0.0117,-0.0129, 0.0043, 0.0099,-0.7835
17-Jan-2019 10:33:20.530,-0.0060,-0.0054,-0.9825,-0.0133, 0.0063, 0.0141,-0.0115,-0.0160,-0.0129, 0.0043, 0.0099,-0.7835
17-Jan-2019 10:33:20.569,-0.0099,-0.0039,-0.9837,-0.0121, 0.0056, 0.0136,-0.0116,-0.0128,-0.0118, 0.0043, 0.0099,-0.7835
17-Jan-2019 10:33:20.609,-0.0094,-0.0022,-0.9842,-0.0136, 0.0029, 0.0143,-0.0105,-0.0138,-0.0139, 0.0043, 0.0098,-0.7835
17-Jan-2019 10:33:20.649,-0.0072,-0.0036,-0.9837,-0.0125, 0.0057, 0.0156,-0.0116,-0.0128,-0.0118, 0.0043, 0.0098,-0.7835
17-Jan-2019 10:33:20.689,-0.0091,-0.0037,-0.9876,-0.0103, 0.0049, 0.0129,-0.0126,-0.0170,-0.0118, 0.0043, 0.0098,-0.7835
17-Jan-2019 10:33:20.729,-0.0076,-0.0072,-0.9844,-0.0148, 0.0078, 0.0123,-0.0084,-0.0117,-0.0107, 0.0043, 0.0098,-0.7835
17-Jan-2019 10:33:20.768,-0.0116,-0.0036,-0.9860,-0.0149, 0.0050, 0.0133,-0.0105,-0.0138,-0.0118, 0.0042, 0.0098,-0.7835
17-Jan-2019 10:33:20.809,-0.0067,-0.0064,-0.9867,-0.0115, 0.0028, 0.0138,-0.0116,-0.0128,-0.0118, 0.0043, 0.0098,-0.7835
17-Jan-2019 10:33:20.848,-0.0106,-0.0048,-0.9861,-0.0135, 0.0066, 0.0145,-0.0094,-0.0149,-0.0118, 0.0043, 0.0098,-0.7835
17-Jan-2019 10:33:20.888,-0.0103,-0.0042,-0.9870,-0.0124, 0.0029, 0.0148,-0.0105,-0.0149,-0.0118, 0.0042, 0.0097,-0.7835
17-Jan-2019 10:33:20.927,-0.0107,-0.0068,-0.9868,-0.0155, 0.0062, 0.0134,-0.0094,-0.0160,-0.0118, 0.0042, 0.0097,-0.7836
17-Jan-2019 10:33:20.967,-0.0086,-0.0064,-0.9860,-0.0117, 0.0063, 0.0147,-0.0084,-0.0128,-0.0107, 0.0042, 0.0097,-0.7835
17-Jan-2019 10:33:21.007,-0.0094,-0.0059,-0.9861,-0.0124, 0.0034, 0.0161,-0.0116,-0.0138,-0.0118, 0.0042, 0.0097,-0.7835
17-Jan-2019 10:33:21.047,-0.0072,-0.0046,-0.9858,-0.0126, 0.0063, 0.0156,-0.0105,-0.0160,-0.0118, 0.0041, 0.0097,-0.7835
17-Jan-2019 10:33:21.086,-0.0107,-0.0046,-0.9866,-0.0116, 0.0040, 0.0131,-0.0105,-0.0149,-0.0118, 0.0041, 0.0097,-0.7835
17-Jan-2019 10:33:21.127,-0.0087,-0.0066,-0.9850,-0.0132, 0.0049, 0.0147,-0.0094,-0.0117,-0.0118, 0.0041, 0.0097,-0.7835
17-Jan-2019 10:33:21.166,-0.0091,-0.0050,-0.9845,-0.0133, 0.0055, 0.0135,-0.0116,-0.0138,-0.0107, 0.0041, 0.0097,-0.7835
17-Jan-2019 10:33:21.205,-0.0070,-0.0054,-0.9862,-0.0123, 0.0048, 0.0164,-0.0115,-0.0149,-0.0139, 0.0041, 0.0097,-0.7835
17-Jan-2019 10:33:21.245,-0.0110,-0.0033,-0.9850,-0.0137, 0.0046, 0.0131,-0.0084,-0.0128,-0.0118, 0.0042, 0.0097,-0.7835
17-Jan-2019 10:33:21.285,-0.0075,-0.0053,-0.9863,-0.0129, 0.0038, 0.0152,-0.0105,-0.0149,-0.0118, 0.0042, 0.0097,-0.7835
17-Jan-2019 10:33:21.325,-0.0121,-0.0052,-0.9857,-0.0127, 0.0055, 0.0135,-0.0094,-0.0128,-0.0107, 0.0041, 0.0097,-0.7835
17-Jan-2019 10:33:21.364,-0.0091,-0.0063,-0.9854,-0.0129, 0.0041, 0.0142,-0.0105,-0.0117,-0.0118, 0.0041, 0.0097,-0.7834
17-Jan-2019 10:33:21.404,-0.0109,-0.0053,-0.9862,-0.0143, 0.0059, 0.0128,-0.0116,-0.0138,-0.0118, 0.0041, 0.0097,-0.7835
17-Jan-2019 10:33:21.444,-0.0099,-0.0034,-0.9846,-0.0134, 0.0040, 0.0144,-0.0105,-0.0106,-0.0129, 0.0041, 0.0097,-0.7835
17-Jan-2019 10:33:21.484,-0.0088,-0.0058,-0.9846,-0.0163, 0.0023, 0.0150,-0.0115,-0.0170,-0.0118, 0.0041, 0.0097,-0.7835
17-Jan-2019 10:33:21.523,-0.0096,-0.0065,-0.9856,-0.0123, 0.0043, 0.0108,-0.0105,-0.0117,-0.0097, 0.0040, 0.0097,-0.7834
17-Jan-2019 10:33:21.563,-0.0079,-0.0045,-0.9870,-0.0114, 0.0043, 0.0127,-0.0084,-0.0138,-0.0118, 0.0040, 0.0097,-0.7835
17-Jan-2019 10:33:21.603,-0.0088,-0.0050,-0.9850,-0.0139, 0.0061, 0.0116,-0.0094,-0.0149,-0.0129, 0.0040, 0.0097,-0.7835
17-Jan-2019 10:33:21.643,-0.0087,-0.0062,-0.9878,-0.0132, 0.0027, 0.0150,-0.0094,-0.0128,-0.0129, 0.0040, 0.0097,-0.7835
17-Jan-2019 10:33:21.683,-0.0101,-0.0042,-0.9866,-0.0134, 0.0045, 0.0140,-0.0116,-0.0138,-0.0107, 0.0040, 0.0097,-0.7835
17-Jan-2019 10:33:21.722,-0.0098,-0.0053,-0.9861,-0.0124, 0.0056, 0.0134,-0.0116,-0.0138,-0.0118, 0.0040, 0.0097,-0.7834
17-Jan-2019 10:33:21.762,-0.0083,-0.0049,-0.9872,-0.0131, 0.0040, 0.0130,-0.0094,-0.0128,-0.0118, 0.0039, 0.0097,-0.7834
17-Jan-2019 10:33:21.801,-0.0099,-0.0062,-0.9863,-0.0136, 0.0046, 0.0136,-0.0094,-0.0138,-0.0129, 0.0039, 0.0097,-0.7835
17-Jan-2019 10:33:21.841,-0.0093,-0.0049,-0.9863,-0.0140, 0.0044, 0.0145,-0.0094,-0.0138,-0.0129, 0.0039, 0.0097,-0.7835
17-Jan-2019 10:33:21.881,-0.0077,-0.0064,-0.9857,-0.0119, 0.0033, 0.0138,-0.0105,-0.0160,-0.0118, 0.0039, 0.0097,-0.7835
17-Jan-2019 10:33:21.921,-0.0100,-0.0040,-0.9859,-0.0145, 0.0052, 0.0143,-0.0073,-0.0106,-0.0128, 0.0039, 0.0097,-0.7834
17-Jan-2019 10:33:21.961,-0.0087,-0.0054,-0.9864,-0.0124, 0.0063, 0.0134,-0.0094,-0.0128,-0.0107, 0.0039, 0.0097,-0.7835
17-Jan-2019 10:33:22.000,-0.0096,-0.0049,-0.9860,-0.0132, 0.0048, 0.0131,-0.0115,-0.0160,-0.0118, 0.0039, 0.0097,-0.7834
17-Jan-2019 10:33:22.040,-0.0076,-0.0052,-0.9850,-0.0126, 0.0040, 0.0138,-0.0084,-0.0127,-0.0128, 0.0039, 0.0097,-0.7835
17-Jan-2019 10:33:22.079,-0.0119,-0.0054,-0.9869,-0.0128, 0.0026, 0.0154,-0.0094,-0.0159,-0.0129, 0.0039, 0.0097,-0.7835
17-Jan-2019 10:33:22.119,-0.0091,-0.0045,-0.9869,-0.0120, 0.0053, 0.0119,-0.0116,-0.0138,-0.0118, 0.0038, 0.0097,-0.7835
17-Jan-2019 10:33:22.159,-0.0090,-0.0062,-0.9851,-0.0114, 0.0049, 0.0133,-0.0105,-0.0138,-0.0118, 0.0038, 0.0097,-0.7835
17-Jan-2019 10:33:22.199,-0.0085,-0.0039,-0.9863,-0.0136, 0.0037, 0.0140,-0.0073,-0.0138,-0.0107, 0.0038, 0.0097,-0.7835
17-Jan-2019 10:33:22.240,-0.0094,-0.0063,-0.9860,-0.0137, 0.0038, 0.0140,-0.0094,-0.0128,-0.0118, 0.0038, 0.0097,-0.7834
17-Jan-2019 10:33:22.278,-0.0101,-0.0042,-0.9851,-0.0129, 0.0063, 0.0128,-0.0105,-0.0128,-0.0118, 0.0038, 0.0097,-0.7834
17-Jan-2019 10:33:22.318,-0.0079,-0.0031,-0.9857,-0.0120, 0.0047, 0.0136,-0.0105,-0.0149,-0.0118, 0.0038, 0.0097,-0.7834
17-Jan-2019 10:33:22.357,-0.0093,-0.0052,-0.9870,-0.0143, 0.0043, 0.0140,-0.0094,-0.0128,-0.0118, 0.0038, 0.0097,-0.7834
17-Jan-2019 10:33:22.397,-0.0097,-0.0038,-0.9857,-0.0136, 0.0043, 0.0124,-0.0094,-0.0149,-0.0129, 0.0038, 0.0097,-0.7834
17-Jan-2019 10:33:22.437,-0.0085,-0.0055,-0.9864,-0.0124, 0.0040, 0.0126,-0.0084,-0.0149,-0.0118, 0.0038, 0.0097,-0.7835
17-Jan-2019 10:33:22.477,-0.0080,-0.0071,-0.9857,-0.0131, 0.0039, 0.0128,-0.0105,-0.0128,-0.0107, 0.0038, 0.0097,-0.7835
17-Jan-2019 10:33:22.517,-0.0108,-0.0031,-0.9869,-0.0134, 0.0063, 0.0136,-0.0115,-0.0149,-0.0129, 0.0038, 0.0097,-0.7835
17-Jan-2019 10:33:22.556,-0.0079,-0.0066,-0.9871,-0.0125, 0.0045, 0.0144,-0.0094,-0.0159,-0.0129, 0.0037, 0.0097,-0.7834
17-Jan-2019 10:33:22.597,-0.0111,-0.0046,-0.9859,-0.0130, 0.0041, 0.0140,-0.0116,-0.0128,-0.0118, 0.0037, 0.0097,-0.7834
17-Jan-2019 10:33:22.636,-0.0087,-0.0053,-0.9850,-0.0137, 0.0051, 0.0137,-0.0105,-0.0138,-0.0118, 0.0037, 0.0097,-0.7834
17-Jan-2019 10:33:22.676,-0.0090,-0.0059,-0.9861,-0.0131, 0.0047, 0.0148,-0.0115,-0.0149,-0.0118, 0.0036, 0.0097,-0.7834
17-Jan-2019 10:33:22.715,-0.0078,-0.0069,-0.9857,-0.0113, 0.0036, 0.0153,-0.0105,-0.0117,-0.0118, 0.0036, 0.0097,-0.7834
17-Jan-2019 10:33:22.755,-0.0088,-0.0019,-0.9854,-0.0146, 0.0057, 0.0129,-0.0105,-0.0138,-0.0129, 0.0036, 0.0097,-0.7834
17-Jan-2019 10:33:22.794,-0.0102,-0.0031,-0.9855,-0.0119, 0.0043, 0.0134,-0.0105,-0.0128,-0.0107, 0.0036, 0.0097,-0.7834
17-Jan-2019 10:33:22.834,-0.0094,-0.0053,-0.9867,-0.0135, 0.0051, 0.0128,-0.0105,-0.0138,-0.0118, 0.0036, 0.0097,-0.7834
17-Jan-2019 10:33:22.874,-0.0079,-0.0038,-0.9860,-0.0110, 0.0029, 0.0122,-0.0105,-0.0138,-0.0129, 0.0036, 0.0097,-0.7834
17-Jan-2019 10:33:22.914,-0.0079,-0.0041,-0.9865,-0.0135, 0.0060, 0.0128,-0.0115,-0.0160,-0.0118, 0.0036, 0.0096,-0.7834
17-Jan-2019 10:33:22.953,-0.0096,-0.0048,-0.9844,-0.0121, 0.0035, 0.0137,-0.0094,-0.0138,-0.0129, 0.0035, 0.0096,-0.7834
17-Jan-2019 10:33:22.993,-0.0086,-0.0064,-0.9865,-0.0122, 0.0040, 0.0131,-0.0105,-0.0106,-0.0107, 0.0035, 0.0096,-0.7834
17-Jan-2019 10:33:23.033,-0.0091,-0.0033,-0.9881,-0.0148, 0.0078, 0.0128,-0.0105,-0.0138,-0.0118, 0.0035, 0.0096,-0.7833
17-Jan-2019 10:33:23.072,-0.0094,-0.0051,-0.9857,-0.0111, 0.0038, 0.0130,-0.0094,-0.0128,-0.0129, 0.0035, 0.0096,-0.7834
17-Jan-2019 10:33:23.112,-0.0090,-0.0054,-0.9871,-0.0130, 0.0047, 0.0142,-0.0105,-0.0138,-0.0118, 0.0035, 0.0095,-0.7834
17-Jan-2019 10:33:23.152,-0.0084,-0.0051,-0.9864,-0.0127, 0.0043, 0.0131,-0.0094,-0.0138,-0.0118, 0.0034, 0.0095,-0.7833
17-Jan-2019 10:33:23.192,-0.0097,-0.0051,-0.9864,-0.0129, 0.0057, 0.0145,-0.0094,-0.0138,-0.0129, 0.0034, 0.0095,-0.7833
17-Jan-2019 10:33:23.232,-0.0083,-0.0063,-0.9864,-0.0135, 0.0045, 0.0144,-0.0105,-0.0117,-0.0118, 0.0034, 0.0095,-0.7833
17-Jan-2019 10:33:23.271,-0.0102,-0.0049,-0.9858,-0.0126, 0.0040, 0.0145,-0.0105,-0.0128,-0.0129, 0.0034, 0.0095,-0.7834
17-Jan-2019 10:33:23.311,-0.0085,-0.0056,-0.9861,-0.0123, 0.0040, 0.0137,-0.0105,-0.0128,-0.0107, 0.0034, 0.0095,-0.7834
17-Jan-2019 10:33:23.354,-0.0079,-0.0055,-0.9865,-0.0123, 0.0048, 0.0135,-0.0094,-0.0160,-0.0118, 0.0034, 0.0095,-0.7834
17-Jan-2019 10:33:23.390,-0.0106,-0.0034,-0.9869,-0.0127, 0.0051, 0.0123,-0.0105,-0.0149,-0.0129, 0.0034, 0.0096,-0.7834
17-Jan-2019 10:33:23.430,-0.0072,-0.0066,-0.9862,-0.0125, 0.0037, 0.0133,-0.0094,-0.0149,-0.0118, 0.0034, 0.0095,-0.7834
17-Jan-2019 10:33:23.470,-0.0089,-0.0051,-0.9870,-0.0120, 0.0027, 0.0138,-0.0094,-0.0138,-0.0118, 0.0034, 0.0096,-0.7834
17-Jan-2019 10:33:23.509,-0.0093,-0.0029,-0.9867,-0.0140, 0.0071, 0.0129,-0.0094,-0.0149,-0.0118, 0.0033, 0.0095,-0.7834
17-Jan-2019 10:33:23.549,-0.0088,-0.0050,-0.9849,-0.0120, 0.0037, 0.0146,-0.0094,-0.0149,-0.0107, 0.0033, 0.0095,-0.7833
17-Jan-2019 10:33:23.589,-0.0098,-0.0045,-0.9877,-0.0133, 0.0050, 0.0148,-0.0094,-0.0149,-0.0107, 0.0033, 0.0095,-0.7834
17-Jan-2019 10:33:23.628,-0.0086,-0.0047,-0.9859,-0.0117, 0.0041, 0.0134,-0.0116,-0.0149,-0.0097, 0.0033, 0.0095,-0.7833
17-Jan-2019 10:33:23.668,-0.0086,-0.0051,-0.9856,-0.0134, 0.0051, 0.0148,-0.0116,-0.0117,-0.0129, 0.0033, 0.0095,-0.7834
17-Jan-2019 10:33:23.708,-0.0098,-0.0047,-0.9855,-0.0122, 0.0044, 0.0115,-0.0116,-0.0138,-0.0107, 0.0032, 0.0095,-0.7833
17-Jan-2019 10:33:23.748,-0.0080,-0.0056,-0.9866,-0.0117, 0.0042, 0.0131,-0.0094,-0.0128,-0.0118, 0.0032, 0.0095,-0.7833
17-Jan-2019 10:33:23.787,-0.0117,-0.0060,-0.9862,-0.0139, 0.0050, 0.0135,-0.0094,-0.0138,-0.0118, 0.0032, 0.0095,-0.7833
17-Jan-2019 10:33:23.827,-0.0089,-0.0054,-0.9872,-0.0110, 0.0057, 0.0147,-0.0105,-0.0128,-0.0118, 0.0032, 0.0095,-0.7833
17-Jan-2019 10:33:23.867,-0.0074,-0.0052,-0.9848,-0.0117, 0.0045, 0.0127,-0.0105,-0.0117,-0.0129, 0.0032, 0.0094,-0.7833
17-Jan-2019 10:33:23.907,-0.0088,-0.0046,-0.9794,-0.0133, 0.0015, 0.0151,-0.0105,-0.0138,-0.0118, 0.0032, 0.0094,-0.7833
17-Jan-2019 10:33:23.947,-0.0137,-0.0043,-0.9298,-0.0138, 0.0054, 0.0626,-0.0105,-0.0138,-0.0129, 0.0032, 0.0094,-0.7834
17-Jan-2019 10:33:23.986,-0.0013,-0.0015,-0.9196,-0.0039, 0.0126, 0.0718,-0.0115,-0.0160,-0.0129, 0.0032, 0.0093,-0.7834
17-Jan-2019 10:33:24.026,-0.0113,-0.0056,-0.9074,-0.0209, 0.0017, 0.0912,-0.0115,-0.0160,-0.0118, 0.0031, 0.0093,-0.7834
17-Jan-2019 10:33:24.066,-0.0042,-0.0009,-0.9179,-0.0018, 0.0109, 0.0818,-0.0094,-0.0159,-0.0129, 0.0031, 0.0093,-0.7833
17-Jan-2019 10:33:24.106,-0.0114,-0.0035,-0.9240,-0.0194, 0.0031, 0.0758,-0.0105,-0.0138,-0.0097, 0.0031, 0.0093,-0.7833
17-Jan-2019 10:33:24.145,-0.0032,-0.0025,-0.9279,-0.0021, 0.0054, 0.0709,-0.0094,-0.0106,-0.0107, 0.0031, 0.0093,-0.7833
17-Jan-2019 10:33:24.185,-0.0135,-0.0059,-0.9303,-0.0165, 0.0022, 0.0685,-0.0116,-0.0117,-0.0129, 0.0031, 0.0093,-0.7832
17-Jan-2019 10:33:24.225,-0.0051,-0.0008,-0.9190,-0.0099, 0.0090, 0.0748,-0.0105,-0.0128,-0.0118, 0.0031, 0.0093,-0.7832
17-Jan-2019 10:33:24.264,-0.0117,-0.0060,-0.9091,-0.0142, 0.0050, 0.0884,-0.0126,-0.0117,-0.0129, 0.0031, 0.0093,-0.7832
17-Jan-2019 10:33:24.304,-0.0103,-0.0087,-0.8909,-0.0117, 0.0042, 0.1036,-0.0105,-0.0128,-0.0118, 0.0031, 0.0092,-0.7832
17-Jan-2019 10:33:24.344,-0.0091,-0.0032,-0.8804,-0.0069, 0.0083, 0.1180,-0.0115,-0.0138,-0.0129, 0.0031, 0.0092,-0.7832
17-Jan-2019 10:33:24.384,-0.0096,-0.0064,-0.8732,-0.0106, 0.0033, 0.1257,-0.0105,-0.0128,-0.0107, 0.0031, 0.0092,-0.7833
17-Jan-2019 10:33:24.424,-0.0072,-0.0024,-0.8749,-0.0109, 0.0059, 0.1258,-0.0094,-0.0149,-0.0118, 0.0031, 0.0092,-0.7833
17-Jan-2019 10:33:24.464,-0.0099,-0.0058,-0.8767,-0.0126, 0.0031, 0.1220,-0.0094,-0.0170,-0.0118, 0.0030, 0.0092,-0.7833
17-Jan-2019 10:33:24.503,-0.0086,-0.0047,-0.8763,-0.0104, 0.0031, 0.1228,-0.0116,-0.0128,-0.0107, 0.0031, 0.0092,-0.7833
17-Jan-2019 10:33:24.543,-0.0091,-0.0035,-0.8771,-0.0139, 0.0043, 0.1229,-0.0073,-0.0117,-0.0118, 0.0031, 0.0092,-0.7832
17-Jan-2019 10:33:24.582,-0.0078,-0.0033,-0.8768,-0.0111, 0.0034, 0.1229,-0.0105,-0.0138,-0.0118, 0.0031, 0.0093,-0.7832
17-Jan-2019 10:33:24.622,-0.0085,-0.0023,-0.8775,-0.0094, 0.0052, 0.1251,-0.0105,-0.0138,-0.0129, 0.0031, 0.0093,-0.7832
17-Jan-2019 10:33:24.662,-0.0068,-0.0056,-0.8775,-0.0116, 0.0044, 0.1268,-0.0105,-0.0149,-0.0129, 0.0031, 0.0093,-0.7832
17-Jan-2019 10:33:24.701,-0.0081,-0.0041,-0.8776,-0.0113, 0.0050, 0.1245,-0.0094,-0.0128,-0.0129, 0.0031, 0.0093,-0.7832
17-Jan-2019 10:33:24.741,-0.0054,-0.0054,-0.8909,-0.0107, 0.0034, 0.1140,-0.0094,-0.0138,-0.0129, 0.0031, 0.0093,-0.7832
17-Jan-2019 10:33:24.781,-0.0085,-0.0004,-0.9301,-0.0099, 0.0069, 0.0816,-0.0084,-0.0138,-0.0118, 0.0032, 0.0094,-0.7832
17-Jan-2019 10:33:24.821,-0.0081,-0.0073,-0.9725,-0.0113, 0.0061, 0.0381,-0.0084,-0.0138,-0.0107, 0.0032, 0.0095,-0.7832
17-Jan-2019 10:33:24.861,-0.0110,-0.0036,-1.0064,-0.0136, 0.0041, 0.0002,-0.0073,-0.0127,-0.0139, 0.0032, 0.0095,-0.7832
17-Jan-2019 10:33:24.900,-0.0108,-0.0041,-1.0237,-0.0133, 0.0066,-0.0224,-0.0094,-0.0128,-0.0129, 0.0032, 0.0095,-0.7833
17-Jan-2019 10:33:24.940,-0.0085,-0.0094,-1.0148,-0.0111,-0.0024,-0.0185,-0.0126,-0.0149,-0.0139, 0.0032, 0.0095,-0.7833
17-Jan-2019 10:33:24.980,-0.0095,-0.0053,-1.0043,-0.0125, 0.0048,-0.0085,-0.0084,-0.0106,-0.0118, 0.0032, 0.0095,-0.7833
17-Jan-2019 10:33:25.020,-0.0094,-0.0017,-0.9933,-0.0120, 0.0036, 0.0057,-0.0105,-0.0149,-0.0118, 0.0032, 0.0095,-0.7833
17-Jan-2019 10:33:25.059,-0.0085,-0.0046,-0.9798,-0.0129, 0.0062, 0.0128,-0.0094,-0.0138,-0.0129, 0.0032, 0.0095,-0.7833
17-Jan-2019 10:33:25.099,-0.0073,-0.0063,-0.9800,-0.0124, 0.0058, 0.0191,-0.0084,-0.0117,-0.0128, 0.0032, 0.0095,-0.7833
17-Jan-2019 10:33:25.139,-0.0104,-0.0083,-0.9805,-0.0124, 0.0040, 0.0204,-0.0115,-0.0170,-0.0118, 0.0032, 0.0095,-0.7833
17-Jan-2019 10:33:25.178,-0.0081,-0.0044,-0.9801,-0.0127, 0.0023, 0.0191,-0.0126,-0.0181,-0.0107, 0.0031, 0.0095,-0.7833
17-Jan-2019 10:33:25.218,-0.0099,-0.0036,-0.9852,-0.0132, 0.0077, 0.0180,-0.0094,-0.0117,-0.0129, 0.0032, 0.0095,-0.7833
17-Jan-2019 10:33:25.259,-0.0107,-0.0081,-0.9881,-0.0136, 0.0050, 0.0122,-0.0084,-0.0085,-0.0128, 0.0032, 0.0095,-0.7833
17-Jan-2019 10:33:25.298,-0.0089,-0.0056,-0.9951,-0.0121, 0.0029, 0.0101,-0.0094,-0.0138,-0.0129, 0.0031, 0.0095,-0.7833
17-Jan-2019 10:33:25.339,-0.0104,-0.0016,-0.9875,-0.0124, 0.0043, 0.0101,-0.0136,-0.0202,-0.0108, 0.0031, 0.0095,-0.7833
17-Jan-2019 10:33:25.377,-0.0098,-0.0053,-0.9841,-0.0123, 0.0048, 0.0068,-0.0105,-0.0117,-0.0118, 0.0031, 0.0094,-0.7833
17-Jan-2019 10:33:25.417,-0.0082,-0.0068,-0.9874,-0.0103, 0.0035, 0.0172,-0.0095,-0.0085,-0.0128, 0.0031, 0.0094,-0.7833
17-Jan-2019 10:33:25.456,-0.0101,-0.0038,-0.9837,-0.0131, 0.0041, 0.0171,-0.0115,-0.0192,-0.0107, 0.0031, 0.0094,-0.7833
17-Jan-2019 10:33:25.496,-0.0078,-0.0054,-0.9829,-0.0119, 0.0047, 0.0144,-0.0095,-0.0106,-0.0097, 0.0031, 0.0094,-0.7833
17-Jan-2019 10:33:25.536,-0.0083,-0.0049,-0.9859,-0.0102, 0.0033, 0.0135,-0.0094,-0.0160,-0.0118, 0.0030, 0.0094,-0.7833
17-Jan-2019 10:33:25.576,-0.0082,-0.0046,-0.9868,-0.0123, 0.0051, 0.0144,-0.0126,-0.0149,-0.0129, 0.0030, 0.0094,-0.7834
17-Jan-2019 10:33:25.616,-0.0099,-0.0053,-0.9866,-0.0129, 0.0024, 0.0143,-0.0105,-0.0128,-0.0129, 0.0030, 0.0094,-0.7834
17-Jan-2019 10:33:25.655,-0.0085,-0.0064,-0.9890,-0.0113, 0.0054, 0.0101,-0.0084,-0.0117,-0.0128, 0.0030, 0.0094,-0.7834
17-Jan-2019 10:33:25.696,-0.0089,-0.0044,-0.9896,-0.0116, 0.0035, 0.0119,-0.0115,-0.0181,-0.0118, 0.0029, 0.0094,-0.7833
17-Jan-2019 10:33:25.735,-0.0089,-0.0064,-0.9855,-0.0110, 0.0046, 0.0125,-0.0073,-0.0085,-0.0128, 0.0029, 0.0094,-0.7833
17-Jan-2019 10:33:25.774,-0.0092,-0.0042,-0.9886,-0.0128, 0.0045, 0.0151,-0.0115,-0.0149,-0.0139, 0.0029, 0.0094,-0.7833
17-Jan-2019 10:33:25.814,-0.0086,-0.0056,-0.9861,-0.0118, 0.0043, 0.0131,-0.0084,-0.0138,-0.0118, 0.0029, 0.0094,-0.7833
17-Jan-2019 10:33:25.854,-0.0089,-0.0042,-0.9870,-0.0109, 0.0037, 0.0151,-0.0084,-0.0128,-0.0097, 0.0029, 0.0094,-0.7833
17-Jan-2019 10:33:25.894,-0.0082,-0.0052,-0.9876,-0.0121, 0.0052, 0.0108,-0.0105,-0.0117,-0.0129, 0.0029, 0.0094,-0.7833
17-Jan-2019 10:33:25.933,-0.0084,-0.0028,-0.9900,-0.0115, 0.0037, 0.0159,-0.0115,-0.0170,-0.0107, 0.0029, 0.0094,-0.7833
17-Jan-2019 10:33:25.973,-0.0079,-0.0057,-0.9836,-0.0108, 0.0022, 0.0111,-0.0084,-0.0128,-0.0118, 0.0029, 0.0095,-0.7833
17-Jan-2019 10:33:26.013,-0.0079,-0.0053,-0.9876,-0.0125, 0.0046, 0.0130,-0.0094,-0.0117,-0.0118, 0.0028, 0.0095,-0.7833
17-Jan-2019 10:33:26.053,-0.0087,-0.0057,-0.9867,-0.0117, 0.0039, 0.0156,-0.0126,-0.0149,-0.0118, 0.0028, 0.0095,-0.7834
17-Jan-2019 10:33:26.092,-0.0090,-0.0043,-0.9846,-0.0120, 0.0049, 0.0129,-0.0083,-0.0138,-0.0139, 0.0028, 0.0095,-0.7834
17-Jan-2019 10:33:26.132,-0.0096,-0.0056,-0.9879,-0.0110, 0.0031, 0.0141,-0.0115,-0.0138,-0.0129, 0.0028, 0.0095,-0.7834
17-Jan-2019 10:33:26.171,-0.0088,-0.0050,-0.9886,-0.0122, 0.0031, 0.0144,-0.0126,-0.0138,-0.0118, 0.0028, 0.0095,-0.7834
17-Jan-2019 10:33:26.212,-0.0091,-0.0057,-0.9862,-0.0112, 0.0045, 0.0121,-0.0094,-0.0149,-0.0118, 0.0028, 0.0095,-0.7834
17-Jan-2019 10:33:26.251,-0.0087,-0.0052,-0.9865,-0.0107, 0.0063, 0.0120,-0.0105,-0.0128,-0.0139, 0.0028, 0.0095,-0.7834
17-Jan-2019 10:33:26.291,-0.0090,-0.0045,-0.9879,-0.0119, 0.0042, 0.0137,-0.0105,-0.0138,-0.0129, 0.0028, 0.0094,-0.7835
17-Jan-2019 10:33:26.331,-0.0093,-0.0058,-0.9898,-0.0127, 0.0044, 0.0098,-0.0084,-0.0117,-0.0128, 0.0027, 0.0095,-0.7835
17-Jan-2019 10:33:26.370,-0.0097,-0.0051,-0.9893,-0.0126, 0.0048, 0.0127,-0.0094,-0.0117,-0.0118, 0.0027, 0.0095,-0.7835
17-Jan-2019 10:33:26.410,-0.0063,-0.0051,-0.9863,-0.0114, 0.0035, 0.0128,-0.0094,-0.0149,-0.0118, 0.0027, 0.0095,-0.7835
17-Jan-2019 10:33:26.450,-0.0093,-0.0070,-0.9867,-0.0105, 0.0041, 0.0145,-0.0094,-0.0138,-0.0129, 0.0027, 0.0095,-0.7835
17-Jan-2019 10:33:26.490,-0.0095,-0.0057,-0.9872,-0.0127, 0.0035, 0.0136,-0.0126,-0.0128,-0.0129, 0.0027, 0.0095,-0.7835
17-Jan-2019 10:33:26.529,-0.0087,-0.0049,-0.9858,-0.0096, 0.0048, 0.0130,-0.0094,-0.0128,-0.0118, 0.0027, 0.0095,-0.7835
17-Jan-2019 10:33:26.569,-0.0101,-0.0046,-0.9892,-0.0127, 0.0025, 0.0125,-0.0115,-0.0160,-0.0118, 0.0027, 0.0095,-0.7835
17-Jan-2019 10:33:26.609,-0.0096,-0.0079,-0.9901,-0.0119, 0.0051, 0.0123,-0.0105,-0.0149,-0.0118, 0.0027, 0.0095,-0.7836
17-Jan-2019 10:33:26.649,-0.0094,-0.0059,-0.9883,-0.0113, 0.0058, 0.0124,-0.0095,-0.0085,-0.0128, 0.0027, 0.0095,-0.7836
17-Jan-2019 10:33:26.688,-0.0084,-0.0058,-0.9850,-0.0105, 0.0044, 0.0126,-0.0094,-0.0106,-0.0139, 0.0027, 0.0095,-0.7836
17-Jan-2019 10:33:26.728,-0.0090,-0.0057,-0.9853,-0.0098, 0.0049, 0.0148,-0.0084,-0.0085,-0.0139, 0.0028, 0.0095,-0.7836
17-Jan-2019 10:33:26.768,-0.0092,-0.0055,-0.9890,-0.0114, 0.0034, 0.0129,-0.0105,-0.0138,-0.0118, 0.0027, 0.0095,-0.7836
17-Jan-2019 10:33:26.807,-0.0083,-0.0041,-0.9883,-0.0112, 0.0038, 0.0116,-0.0105,-0.0149,-0.0139, 0.0027, 0.0095,-0.7836
17-Jan-2019 10:33:26.847,-0.0090,-0.0063,-0.9861,-0.0112, 0.0033, 0.0114,-0.0115,-0.0160,-0.0107, 0.0027, 0.0095,-0.7836
17-Jan-2019 10:33:26.887,-0.0081,-0.0054,-0.9897,-0.0106, 0.0052, 0.0126,-0.0105,-0.0138,-0.0129, 0.0027, 0.0095,-0.7837
17-Jan-2019 10:33:26.927,-0.0102,-0.0064,-0.9877,-0.0130, 0.0032, 0.0119,-0.0116,-0.0138,-0.0118, 0.0027, 0.0095,-0.7837
17-Jan-2019 10:33:26.967,-0.0062,-0.0047,-0.9886,-0.0104, 0.0043, 0.0096,-0.0105,-0.0160,-0.0118, 0.0027, 0.0095,-0.7837
17-Jan-2019 10:33:27.006,-0.0093,-0.0072,-0.9890,-0.0106, 0.0047, 0.0130,-0.0105,-0.0138,-0.0129, 0.0027, 0.0095,-0.7837
17-Jan-2019 10:33:27.046,-0.0084,-0.0057,-0.9856,-0.0114, 0.0034, 0.0145,-0.0105,-0.0138,-0.0118, 0.0027, 0.0095,-0.7837
17-Jan-2019 10:33:27.085,-0.0097,-0.0043,-0.9838,-0.0121, 0.0048, 0.0160,-0.0105,-0.0149,-0.0129, 0.0027, 0.0095,-0.7837
17-Jan-2019 10:33:27.125,-0.0084,-0.0061,-0.9839,-0.0115, 0.0055, 0.0157,-0.0115,-0.0138,-0.0129, 0.0027, 0.0095,-0.7837
17-Jan-2019 10:33:27.165,-0.0085,-0.0050,-0.9877,-0.0116, 0.0056, 0.0133,-0.0084,-0.0138,-0.0129, 0.0027, 0.0095,-0.7837
17-Jan-2019 10:33:27.205,-0.0094,-0.0053,-0.9912,-0.0116, 0.0033, 0.0116,-0.0115,-0.0160,-0.0129, 0.0027, 0.0095,-0.7838
17-Jan-2019 10:33:27.244,-0.0083,-0.0053,-0.9893,-0.0117, 0.0038, 0.0094,-0.0105,-0.0160,-0.0129, 0.0026, 0.0094,-0.7838
17-Jan-2019 10:33:27.285,-0.0085,-0.0057,-0.9885,-0.0102, 0.0033, 0.0118,-0.0105,-0.0128,-0.0118, 0.0026, 0.0094,-0.7838
17-Jan-2019 10:33:27.324,-0.0105,-0.0047,-0.9880,-0.0124, 0.0054, 0.0139,-0.0105,-0.0138,-0.0118, 0.0026, 0.0094,-0.7838
17-Jan-2019 10:33:27.364,-0.0062,-0.0058,-0.9865,-0.0110, 0.0025, 0.0141,-0.0105,-0.0138,-0.0107, 0.0025, 0.0094,-0.7838
17-Jan-2019 10:33:27.403,-0.0087,-0.0050,-0.9886,-0.0114, 0.0041, 0.0117,-0.0105,-0.0138,-0.0129, 0.0025, 0.0094,-0.7838
17-Jan-2019 10:33:27.444,-0.0088,-0.0063,-0.9878,-0.0110, 0.0041, 0.0138,-0.0105,-0.0128,-0.0118, 0.0025, 0.0094,-0.7838
17-Jan-2019 10:33:27.483,-0.0079,-0.0059,-0.9887,-0.0107, 0.0038, 0.0127,-0.0105,-0.0138,-0.0129, 0.0025, 0.0094,-0.7838
17-Jan-2019 10:33:27.523,-0.0108,-0.0066,-0.9876,-0.0129, 0.0026, 0.0119,-0.0094,-0.0128,-0.0129, 0.0025, 0.0094,-0.7838
17-Jan-2019 10:33:27.562,-0.0084,-0.0036,-0.9870,-0.0107, 0.0058, 0.0130,-0.0105,-0.0138,-0.0129, 0.0025, 0.0094,-0.7838
17-Jan-2019 10:33:27.602,-0.0081,-0.0077,-0.9851,-0.0099, 0.0026, 0.0139,-0.0084,-0.0149,-0.0118, 0.0024, 0.0094,-0.7838
17-Jan-2019 10:33:27.642,-0.0094,-0.0045,-0.9888,-0.0107, 0.0039, 0.0142,-0.0105,-0.0138,-0.0139, 0.0024, 0.0094,-0.7839
17-Jan-2019 10:33:27.681,-0.0114,-0.0055,-0.9877,-0.0126, 0.0071, 0.0129,-0.0116,-0.0128,-0.0118, 0.0024, 0.0094,-0.7838
17-Jan-2019 10:33:27.721,-0.0070,-0.0036,-0.9883,-0.0099, 0.0039, 0.0124,-0.0094,-0.0160,-0.0118, 0.0024, 0.0094,-0.7838
17-Jan-2019 10:33:27.761,-0.0088,-0.0060,-0.9857,-0.0101, 0.0031, 0.0126,-0.0094,-0.0149,-0.0129, 0.0023, 0.0094,-0.7838
17-Jan-2019 10:33:27.801,-0.0092,-0.0084,-0.9851,-0.0117, 0.0025, 0.0132,-0.0116,-0.0128,-0.0118, 0.0024, 0.0094,-0.7838
17-Jan-2019 10:33:27.840,-0.0051,-0.0052,-0.9864,-0.0087, 0.0041, 0.0155,-0.0094,-0.0128,-0.0118, 0.0024, 0.0094,-0.7838
17-Jan-2019 10:33:27.881,-0.0093,-0.0067,-0.9869,-0.0099, 0.0035, 0.0127,-0.0094,-0.0138,-0.0129, 0.0023, 0.0094,-0.7839
17-Jan-2019 10:33:27.920,-0.0098,-0.0065,-0.9884,-0.0126, 0.0030, 0.0118,-0.0073,-0.0138,-0.0118, 0.0024, 0.0094,-0.7839
17-Jan-2019 10:33:27.959,-0.0080,-0.0061,-0.9854,-0.0099, 0.0051, 0.0132,-0.0083,-0.0149,-0.0139, 0.0023, 0.0094,-0.7839
17-Jan-2019 10:33:27.999,-0.0052,-0.0051,-0.9864,-0.0087, 0.0041, 0.0129,-0.0094,-0.0128,-0.0118, 0.0023, 0.0094,-0.7839
17-Jan-2019 10:33:28.039,-0.0089,-0.0025,-0.9906,-0.0127, 0.0049, 0.0116,-0.0105,-0.0160,-0.0129, 0.0023, 0.0094,-0.7839
17-Jan-2019 10:33:28.079,-0.0109,-0.0031,-0.9955,-0.0097, 0.0086, 0.0060,-0.0084,-0.0149,-0.0107, 0.0023, 0.0094,-0.7839
17-Jan-2019 10:33:28.119,-0.0092,-0.0051,-0.9924,-0.0127, 0.0042, 0.0066,-0.0116,-0.0096,-0.0097, 0.0023, 0.0094,-0.7838
17-Jan-2019 10:33:28.158,-0.0094,-0.0059,-0.9909,-0.0111, 0.0042, 0.0091,-0.0115,-0.0160,-0.0118, 0.0023, 0.0093,-0.7838
17-Jan-2019 10:33:28.198,-0.0071,-0.0050,-0.9860,-0.0105, 0.0021, 0.0132,-0.0126,-0.0170,-0.0097, 0.0022, 0.0093,-0.7838
17-Jan-2019 10:33:28.238,-0.0073,-0.0070,-0.9828,-0.0087, 0.0015, 0.0130,-0.0094,-0.0160,-0.0118, 0.0022, 0.0093,-0.7838
17-Jan-2019 10:33:28.277,-0.0100,-0.0072,-0.9870,-0.0122, 0.0058, 0.0152,-0.0105,-0.0106,-0.0139, 0.0022, 0.0093,-0.7838
17-Jan-2019 10:33:28.317,-0.0100,-0.0038,-0.9893,-0.0142, 0.0037, 0.0139,-0.0105,-0.0149,-0.0107, 0.0022, 0.0093,-0.7837
17-Jan-2019 10:33:28.356,-0.0099,-0.0039,-0.9864,-0.0093, 0.0051, 0.0105,-0.0105,-0.0149,-0.0118, 0.0022, 0.0092,-0.7837
17-Jan-2019 10:33:28.396,-0.0058,-0.0086,-0.9835,-0.0101, 0.0022, 0.0137,-0.0095,-0.0085,-0.0107, 0.0022, 0.0092,-0.7837
17-Jan-2019 10:33:28.436,-0.0064,-0.0075,-0.9860,-0.0091, 0.0025, 0.0209,-0.0084,-0.0138,-0.0118, 0.0022, 0.0092,-0.7837
17-Jan-2019 10:33:28.476,-0.0104,-0.0028,-0.9859,-0.0114, 0.0037, 0.0149,-0.0105,-0.0192,-0.0107, 0.0021, 0.0092,-0.7837
17-Jan-2019 10:33:28.516,-0.0090,-0.0038,-0.9878,-0.0111, 0.0082, 0.0086,-0.0105,-0.0096,-0.0097, 0.0021, 0.0092,-0.7836
17-Jan-2019 10:33:28.555,-0.0099,-0.0082,-0.9901,-0.0122, 0.0056, 0.0134,-0.0116,-0.0117,-0.0107, 0.0021, 0.0092,-0.7836
17-Jan-2019 10:33:28.595,-0.0064,-0.0057,-0.9878,-0.0090, 0.0004, 0.0128,-0.0136,-0.0202,-0.0118, 0.0021, 0.0092,-0.7836
17-Jan-2019 10:33:28.636,-0.0080,-0.0067,-0.9870,-0.0083, 0.0024, 0.0097,-0.0094,-0.0138,-0.0118, 0.0021, 0.0092,-0.7836
17-Jan-2019 10:33:28.675,-0.0109,-0.0067,-0.9918,-0.0134, 0.0038, 0.0119,-0.0073,-0.0064,-0.0128, 0.0021, 0.0092,-0.7836
17-Jan-2019 10:33:28.714,-0.0086,-0.0047,-0.9908,-0.0116, 0.0050, 0.0123,-0.0126,-0.0192,-0.0108, 0.0021, 0.0091,-0.7836
17-Jan-2019 10:33:28.755,-0.0100,-0.0054,-0.9850,-0.0111, 0.0020, 0.0096,-0.0105,-0.0170,-0.0118, 0.0020, 0.0091,-0.7835
17-Jan-2019 10:33:28.795,-0.0063,-0.0055,-0.9867,-0.0089, 0.0037, 0.0124,-0.0084,-0.0096,-0.0128, 0.0020, 0.0091,-0.7835
17-Jan-2019 10:33:28.833,-0.0145,-0.0054,-0.9844,-0.0133, 0.0018, 0.0169,-0.0094,-0.0117,-0.0118, 0.0020, 0.0091,-0.7835
17-Jan-2019 10:33:28.874,-0.0035,-0.0040,-0.9846,-0.0049, 0.0057, 0.0148,-0.0105,-0.0170,-0.0118, 0.0020, 0.0091,-0.7835
17-Jan-2019 10:33:28.913,-0.0098,-0.0106,-0.9842,-0.0125, 0.0017, 0.0174,-0.0084,-0.0128,-0.0118, 0.0020, 0.0091,-0.7835
17-Jan-2019 10:33:28.953,-0.0065,-0.0035,-0.9906,-0.0067, 0.0055, 0.0118,-0.0105,-0.0138,-0.0118, 0.0020, 0.0091,-0.7835
17-Jan-2019 10:33:28.993,-0.0101,-0.0047,-0.9913,-0.0137, 0.0044, 0.0102,-0.0084,-0.0127,-0.0128, 0.0020, 0.0091,-0.7835
17-Jan-2019 10:33:29.033,-0.0105,-0.0039,-0.9897,-0.0098, 0.0055, 0.0084,-0.0105,-0.0138,-0.0118, 0.0019, 0.0091,-0.7835
17-Jan-2019 10:33:29.073,-0.0078,-0.0059,-0.9857,-0.0117, 0.0023, 0.0164,-0.0116,-0.0128,-0.0129, 0.0019, 0.0091,-0.7835
17-Jan-2019 10:33:29.114,-0.0081,-0.0088,-0.9816,-0.0091, 0.0024, 0.0170,-0.0115,-0.0149,-0.0107, 0.0019, 0.0091,-0.7835
17-Jan-2019 10:33:29.152,-0.0078,-0.0052,-0.9846,-0.0092, 0.0036, 0.0162,-0.0105,-0.0128,-0.0118, 0.0019, 0.0091,-0.7835
17-Jan-2019 10:33:29.191,-0.0081,-0.0056,-0.9865,-0.0098, 0.0038, 0.0161,-0.0105,-0.0149,-0.0118, 0.0019, 0.0091,-0.7835
17-Jan-2019 10:33:29.232,-0.0096,-0.0050,-0.9870,-0.0116, 0.0034, 0.0110,-0.0105,-0.0128,-0.0129, 0.0019, 0.0091,-0.7835
17-Jan-2019 10:33:29.271,-0.0079,-0.0059,-0.9888,-0.0089, 0.0032, 0.0123,-0.0115,-0.0149,-0.0107, 0.0019, 0.0090,-0.7835
17-Jan-2019 10:33:29.311,-0.0072,-0.0091,-0.9881,-0.0101, 0.0016, 0.0131,-0.0094,-0.0128,-0.0118, 0.0019, 0.0090,-0.7834
17-Jan-2019 10:33:29.350,-0.0077,-0.0065,-0.9887,-0.0073, 0.0027, 0.0097,-0.0094,-0.0106,-0.0128, 0.0019, 0.0091,-0.7834
17-Jan-2019 10:33:29.390,-0.0089,-0.0056,-0.9885,-0.0091, 0.0036, 0.0118,-0.0094,-0.0149,-0.0129, 0.0019, 0.0091,-0.7835
17-Jan-2019 10:33:29.430,-0.0088,-0.0025,-0.9887,-0.0096, 0.0066, 0.0145,-0.0126,-0.0117,-0.0118, 0.0019, 0.0090,-0.7835
17-Jan-2019 10:33:29.470,-0.0082,-0.0044,-0.9824,-0.0117, 0.0031, 0.0156,-0.0094,-0.0138,-0.0118, 0.0020, 0.0090,-0.7835
17-Jan-2019 10:33:29.510,-0.0118,-0.0036,-0.9880,-0.0128, 0.0060, 0.0150,-0.0105,-0.0160,-0.0129, 0.0020, 0.0090,-0.7835
17-Jan-2019 10:33:29.550,-0.0068,-0.0049,-0.9880,-0.0103, 0.0038, 0.0104,-0.0115,-0.0149,-0.0118, 0.0019, 0.0090,-0.7835
17-Jan-2019 10:33:29.588,-0.0102,-0.0055,-0.9927,-0.0112, 0.0051, 0.0092,-0.0105,-0.0138,-0.0118, 0.0019, 0.0090,-0.7835
17-Jan-2019 10:33:29.630,-0.0092,-0.0044,-0.9910,-0.0130, 0.0034, 0.0073,-0.0094,-0.0149,-0.0107, 0.0019, 0.0090,-0.7834
17-Jan-2019 10:33:29.670,-0.0060,-0.0101,-0.9883,-0.0064, 0.0011, 0.0115,-0.0105,-0.0117,-0.0118, 0.0019, 0.0089,-0.7834
17-Jan-2019 10:33:29.710,-0.0056,-0.0062,-0.9806,-0.0071, 0.0000, 0.0162,-0.0094,-0.0159,-0.0129, 0.0019, 0.0089,-0.7834
17-Jan-2019 10:33:29.749,-0.0130,-0.0005,-0.9814,-0.0121, 0.0073, 0.0206,-0.0105,-0.0128,-0.0118, 0.0019, 0.0089,-0.7834
17-Jan-2019 10:33:29.787,-0.0107,-0.0068,-0.9818,-0.0146, 0.0020, 0.0192,-0.0126,-0.0170,-0.0107, 0.0019, 0.0089,-0.7834
17-Jan-2019 10:33:29.827,-0.0059,-0.0057,-0.9867,-0.0072, 0.0042, 0.0096,-0.0094,-0.0128,-0.0118, 0.0019, 0.0089,-0.7833
17-Jan-2019 10:33:29.867,-0.0062,-0.0080,-0.9886,-0.0078, 0.0011, 0.0114,-0.0105,-0.0149,-0.0129, 0.0019, 0.0088,-0.7833
17-Jan-2019 10:33:29.907,-0.0100,-0.0052,-0.9873,-0.0100, 0.0025, 0.0125,-0.0105,-0.0138,-0.0107, 0.0018, 0.0088,-0.7833
17-Jan-2019 10:33:29.947,-0.0119,-0.0075,-0.9872,-0.0146, 0.0011, 0.0131,-0.0116,-0.0128,-0.0118, 0.0019, 0.0088,-0.7833
17-Jan-2019 10:33:29.987,-0.0053,-0.0024,-0.9894,-0.0071, 0.0052, 0.0123,-0.0094,-0.0138,-0.0107, 0.0018, 0.0088,-0.7833
17-Jan-2019 10:33:30.026,-0.0088,-0.0072,-0.9824,-0.0088, 0.0010, 0.0177,-0.0105,-0.0149,-0.0129, 0.0019, 0.0088,-0.7833
17-Jan-2019 10:33:30.065,-0.0095,-0.0050,-0.9818,-0.0108, 0.0041, 0.0177,-0.0105,-0.0128,-0.0129, 0.0019, 0.0088,-0.7833
17-Jan-2019 10:33:30.106,-0.0131,-0.0081,-0.9858,-0.0130, 0.0025, 0.0156,-0.0105,-0.0149,-0.0107, 0.0019, 0.0087,-0.7833
17-Jan-2019 10:33:30.145,-0.0050,-0.0051,-0.9922,-0.0095, 0.0024, 0.0092,-0.0105,-0.0138,-0.0107, 0.0019, 0.0088,-0.7833
17-Jan-2019 10:33:30.185,-0.0063,-0.0069,-0.9911,-0.0069, 0.0037, 0.0097,-0.0116,-0.0138,-0.0118, 0.0018, 0.0087,-0.7833
17-Jan-2019 10:33:30.225,-0.0091,-0.0040,-0.9927,-0.0115, 0.0040, 0.0101,-0.0094,-0.0138,-0.0097, 0.0018, 0.0087,-0.7833
17-Jan-2019 10:33:30.265,-0.0090,-0.0062,-0.9902,-0.0113, 0.0041, 0.0095,-0.0116,-0.0128,-0.0107, 0.0018, 0.0087,-0.7833
17-Jan-2019 10:33:30.304,-0.0100,-0.0062,-0.9869,-0.0132, 0.0025, 0.0123,-0.0116,-0.0128,-0.0097, 0.0018, 0.0087,-0.7833
17-Jan-2019 10:33:30.343,-0.0068,-0.0066,-0.9828,-0.0087, 0.0025, 0.0166,-0.0115,-0.0138,-0.0129, 0.0018, 0.0087,-0.7832
17-Jan-2019 10:33:30.383,-0.0075,-0.0046,-0.9812,-0.0088, 0.0038, 0.0186,-0.0094,-0.0138,-0.0118, 0.0018, 0.0087,-0.7833
17-Jan-2019 10:33:30.424,-0.0094,-0.0043,-0.9808,-0.0124, 0.0033, 0.0208,-0.0084,-0.0128,-0.0118, 0.0018, 0.0087,-0.7832
17-Jan-2019 10:33:30.463,-0.0053,-0.0065,-0.9823,-0.0071, 0.0044, 0.0171,-0.0105,-0.0138,-0.0129, 0.0018, 0.0087,-0.7832
17-Jan-2019 10:33:30.502,-0.0094,-0.0062,-0.9875,-0.0099, 0.0019, 0.0144,-0.0094,-0.0138,-0.0107, 0.0018, 0.0087,-0.7832
17-Jan-2019 10:33:30.542,-0.0083,-0.0047,-0.9881,-0.0118, 0.0058, 0.0098,-0.0094,-0.0160,-0.0118, 0.0017, 0.0087,-0.7832
17-Jan-2019 10:33:30.581,-0.0098,-0.0069,-0.9906,-0.0104, 0.0020, 0.0096,-0.0094,-0.0117,-0.0107, 0.0017, 0.0087,-0.7833
17-Jan-2019 10:33:30.621,-0.0058,-0.0053,-0.9885,-0.0078, 0.0021, 0.0114,-0.0105,-0.0160,-0.0118, 0.0016, 0.0087,-0.7833
17-Jan-2019 10:33:30.661,-0.0083,-0.0052,-0.9872,-0.0108, 0.0037, 0.0123,-0.0105,-0.0128,-0.0129, 0.0016, 0.0087,-0.7832
17-Jan-2019 10:33:30.702,-0.0095,-0.0063,-0.9881,-0.0115, 0.0022, 0.0144,-0.0105,-0.0138,-0.0118, 0.0016, 0.0087,-0.7832
17-Jan-2019 10:33:30.741,-0.0043,-0.0054,-0.9868,-0.0076, 0.0038, 0.0137,-0.0094,-0.0117,-0.0107, 0.0016, 0.0087,-0.7832
17-Jan-2019 10:33:30.780,-0.0088,-0.0034,-0.9863,-0.0101, 0.0019, 0.0141,-0.0094,-0.0149,-0.0118, 0.0016, 0.0087,-0.7833
17-Jan-2019 10:33:30.821,-0.0075,-0.0056,-0.9878,-0.0094, 0.0026, 0.0096,-0.0105,-0.0138,-0.0118, 0.0016, 0.0087,-0.7833
17-Jan-2019 10:33:30.861,-0.0116,-0.0051,-0.9883,-0.0132, 0.0046, 0.0123,-0.0094,-0.0138,-0.0129, 0.0016, 0.0087,-0.7833
17-Jan-2019 10:33:30.900,-0.0044,-0.0083,-0.9872,-0.0074, 0.0021, 0.0118,-0.0105,-0.0138,-0.0107, 0.0015, 0.0087,-0.7832
17-Jan-2019 10:33:30.940,-0.0091,-0.0060,-0.9850,-0.0076, 0.0033, 0.0147,-0.0084,-0.0128,-0.0118, 0.0015, 0.0087,-0.7832
17-Jan-2019 10:33:30.979,-0.0103,-0.0060,-0.9860,-0.0139, 0.0025, 0.0154,-0.0094,-0.0149,-0.0118, 0.0015, 0.0087,-0.7832
17-Jan-2019 10:33:31.019,-0.0074,-0.0060,-0.9877,-0.0070, 0.0042, 0.0125,-0.0094,-0.0149,-0.0129, 0.0015, 0.0087,-0.7833
17-Jan-2019 10:33:31.059,-0.0081,-0.0060,-0.9868,-0.0107, 0.0029, 0.0142,-0.0115,-0.0138,-0.0129, 0.0015, 0.0087,-0.7833
17-Jan-2019 10:33:31.099,-0.0073,-0.0055,-0.9877,-0.0084, 0.0050, 0.0126,-0.0094,-0.0149,-0.0107, 0.0015, 0.0087,-0.7832
17-Jan-2019 10:33:31.138,-0.0098,-0.0055,-0.9864,-0.0117, 0.0018, 0.0142,-0.0094,-0.0149,-0.0107, 0.0015, 0.0087,-0.7832
17-Jan-2019 10:33:31.178,-0.0076,-0.0052,-0.9908,-0.0079, 0.0042, 0.0113,-0.0115,-0.0149,-0.0107, 0.0014, 0.0087,-0.7832
17-Jan-2019 10:33:31.217,-0.0106,-0.0045,-0.9893,-0.0120, 0.0032, 0.0112,-0.0105,-0.0160,-0.0118, 0.0014, 0.0087,-0.7832
17-Jan-2019 10:33:31.258,-0.0071,-0.0058,-0.9901,-0.0088, 0.0043, 0.0115,-0.0084,-0.0106,-0.0118, 0.0014, 0.0087,-0.7832
17-Jan-2019 10:33:31.297,-0.0074,-0.0055,-0.9868,-0.0095, 0.0019, 0.0130,-0.0115,-0.0160,-0.0118, 0.0014, 0.0087,-0.7832
17-Jan-2019 10:33:31.339,-0.0084,-0.0050,-0.9866,-0.0099, 0.0039, 0.0146,-0.0105,-0.0128,-0.0118, 0.0014, 0.0086,-0.7832
17-Jan-2019 10:33:31.376,-0.0073,-0.0061,-0.9850,-0.0100, 0.0028, 0.0139,-0.0126,-0.0149,-0.0107, 0.0014, 0.0086,-0.7832
17-Jan-2019 10:33:31.417,-0.0086,-0.0057,-0.9871,-0.0093, 0.0030, 0.0134,-0.0094,-0.0160,-0.0118, 0.0013, 0.0087,-0.7832
17-Jan-2019 10:33:31.457,-0.0082,-0.0059,-0.9859,-0.0098, 0.0031, 0.0135,-0.0094,-0.0128,-0.0118, 0.0013, 0.0087,-0.7832
17-Jan-2019 10:33:31.496,-0.0079,-0.0053,-0.9855,-0.0101, 0.0044, 0.0147,-0.0116,-0.0117,-0.0129, 0.0013, 0.0086,-0.7832
17-Jan-2019 10:33:31.536,-0.0098,-0.0066,-0.9874,-0.0098, 0.0031, 0.0125,-0.0105,-0.0138,-0.0129, 0.0013, 0.0086,-0.7832
17-Jan-2019 10:33:31.576,-0.0072,-0.0058,-0.9870,-0.0094, 0.0037, 0.0126,-0.0105,-0.0170,-0.0129, 0.0012, 0.0086,-0.7832
17-Jan-2019 10:33:31.615,-0.0096,-0.0045,-0.9893,-0.0103, 0.0039, 0.0122,-0.0105,-0.0117,-0.0129, 0.0012, 0.0086,-0.7832
17-Jan-2019 10:33:31.655,-0.0077,-0.0070,-0.9878,-0.0102, 0.0037, 0.0131,-0.0094,-0.0160,-0.0118, 0.0012, 0.0086,-0.7832
17-Jan-2019 10:33:31.695,-0.0078,-0.0042,-0.9881,-0.0086, 0.0031, 0.0128,-0.0105,-0.0128,-0.0097, 0.0011, 0.0086,-0.7832
17-Jan-2019 10:33:31.734,-0.0079,-0.0057,-0.9863,-0.0090, 0.0029, 0.0129,-0.0105,-0.0170,-0.0118, 0.0011, 0.0086,-0.7832
17-Jan-2019 10:33:31.773,-0.0082,-0.0063,-0.9848,-0.0103, 0.0032, 0.0143,-0.0105,-0.0128,-0.0118, 0.0011, 0.0086,-0.7832
17-Jan-2019 10:33:31.814,-0.0097,-0.0049,-0.9853,-0.0085, 0.0033, 0.0141,-0.0094,-0.0117,-0.0129, 0.0011, 0.0086,-0.7832
17-Jan-2019 10:33:31.853,-0.0076,-0.0066,-0.9886,-0.0103, 0.0037, 0.0118,-0.0105,-0.0149,-0.0118, 0.0011, 0.0086,-0.7832
17-Jan-2019 10:33:31.893,-0.0085,-0.0053,-0.9872,-0.0088, 0.0030, 0.0099,-0.0094,-0.0117,-0.0107, 0.0010, 0.0086,-0.7832
17-Jan-2019 10:33:31.932,-0.0089,-0.0061,-0.9855,-0.0099, 0.0030, 0.0148,-0.0115,-0.0149,-0.0118, 0.0010, 0.0086,-0.7832
17-Jan-2019 10:33:31.973,-0.0088,-0.0056,-0.9858,-0.0108, 0.0031, 0.0129,-0.0105,-0.0128,-0.0118, 0.0010, 0.0086,-0.7832
17-Jan-2019 10:33:32.013,-0.0083,-0.0060,-0.9853,-0.0097, 0.0026, 0.0144,-0.0115,-0.0160,-0.0118, 0.0010, 0.0086,-0.7832
17-Jan-2019 10:33:32.052,-0.0090,-0.0053,-0.9868,-0.0094, 0.0038, 0.0125,-0.0094,-0.0128,-0.0118, 0.0010, 0.0086,-0.7832
17-Jan-2019 10:33:32.092,-0.0081,-0.0065,-0.9879,-0.0094, 0.0039, 0.0130,-0.0115,-0.0149,-0.0129, 0.0009, 0.0086,-0.7832
17-Jan-2019 10:33:32.132,-0.0080,-0.0047,-0.9866,-0.0088, 0.0020, 0.0138,-0.0126,-0.0160,-0.0129, 0.0009, 0.0085,-0.7832
17-Jan-2019 10:33:32.172,-0.0092,-0.0056,-0.9869,-0.0100, 0.0059, 0.0130,-0.0105,-0.0117,-0.0107, 0.0009, 0.0085,-0.7832
17-Jan-2019 10:33:32.211,-0.0093,-0.0039,-0.9890,-0.0096, 0.0022, 0.0124,-0.0126,-0.0170,-0.0118, 0.0008, 0.0085,-0.7831
17-Jan-2019 10:33:32.251,-0.0079,-0.0064,-0.9884,-0.0087, 0.0045, 0.0108,-0.0094,-0.0106,-0.0118, 0.0008, 0.0085,-0.7831
17-Jan-2019 10:33:32.290,-0.0089,-0.0032,-0.9861,-0.0093, 0.0012, 0.0134,-0.0115,-0.0192,-0.0129, 0.0008, 0.0085,-0.7831
17-Jan-2019 10:33:32.330,-0.0078,-0.0058,-0.9885,-0.0082, 0.0064, 0.0090,-0.0105,-0.0085,-0.0118, 0.0008, 0.0085,-0.7831
17-Jan-2019 10:33:32.370,-0.0099,-0.0048,-0.9840,-0.0104, 0.0016, 0.0156,-0.0126,-0.0192,-0.0118, 0.0008, 0.0084,-0.7831
17-Jan-2019 10:33:32.410,-0.0093,-0.0064,-0.9882,-0.0098, 0.0030, 0.0123,-0.0084,-0.0085,-0.0128, 0.0008, 0.0085,-0.7832
17-Jan-2019 10:33:32.450,-0.0090,-0.0045,-0.9853,-0.0099, 0.0026, 0.0151,-0.0137,-0.0160,-0.0118, 0.0008, 0.0084,-0.7832
17-Jan-2019 10:33:32.490,-0.0094,-0.0063,-0.9868,-0.0098, 0.0027, 0.0149,-0.0105,-0.0106,-0.0118, 0.0008, 0.0084,-0.7832
17-Jan-2019 10:33:32.529,-0.0081,-0.0042,-0.9859,-0.0099, 0.0041, 0.0134,-0.0105,-0.0149,-0.0118, 0.0008, 0.0084,-0.7832
17-Jan-2019 10:33:32.568,-0.0092,-0.0049,-0.9850,-0.0101, 0.0044, 0.0142,-0.0105,-0.0128,-0.0118, 0.0008, 0.0084,-0.7832
17-Jan-2019 10:33:32.608,-0.0086,-0.0068,-0.9849,-0.0096, 0.0012, 0.0155,-0.0116,-0.0138,-0.0118, 0.0008, 0.0084,-0.7832
17-Jan-2019 10:33:32.648,-0.0108,-0.0046,-0.9886,-0.0113, 0.0045, 0.0111,-0.0094,-0.0128,-0.0118, 0.0008, 0.0084,-0.7832
17-Jan-2019 10:33:32.688,-0.0063,-0.0038,-0.9884,-0.0080, 0.0024, 0.0102,-0.0126,-0.0138,-0.0118, 0.0007, 0.0084,-0.7832
17-Jan-2019 10:33:32.728,-0.0044,-0.0053,-0.9912,-0.0055, 0.0040, 0.0108,-0.0105,-0.0170,-0.0129, 0.0007, 0.0084,-0.7832
17-Jan-2019 10:33:32.767,-0.0100,-0.0028,-0.9871,-0.0087, 0.0065, 0.0110,-0.0094,-0.0128,-0.0118, 0.0007, 0.0084,-0.7832
17-Jan-2019 10:33:32.807,-0.0146,-0.0090,-0.9816,-0.0147, 0.0013, 0.0166,-0.0105,-0.0128,-0.0107, 0.0007, 0.0083,-0.7832
17-Jan-2019 10:33:32.847,-0.0093,-0.0049,-0.9861,-0.0116, 0.0020, 0.0156,-0.0094,-0.0117,-0.0107, 0.0007, 0.0084,-0.7832
17-Jan-2019 10:33:32.887,-0.0078,-0.0043,-0.9872,-0.0064, 0.0052, 0.0126,-0.0094,-0.0138,-0.0129, 0.0007, 0.0083,-0.7833
17-Jan-2019 10:33:32.926,-0.0097,-0.0042,-0.9883,-0.0099, 0.0031, 0.0126,-0.0105,-0.0117,-0.0118, 0.0007, 0.0083,-0.7833
17-Jan-2019 10:33:32.966,-0.0095,-0.0077,-0.9886,-0.0092, 0.0011, 0.0105,-0.0084,-0.0128,-0.0118, 0.0006, 0.0083,-0.7833
17-Jan-2019 10:33:33.006,-0.0104,-0.0040,-0.9860,-0.0101, 0.0066, 0.0131,-0.0126,-0.0149,-0.0118, 0.0006, 0.0083,-0.7833
17-Jan-2019 10:33:33.045,-0.0086,-0.0059,-0.9863,-0.0095, 0.0014, 0.0142,-0.0105,-0.0128,-0.0118, 0.0007, 0.0083,-0.7833
17-Jan-2019 10:33:33.084,-0.0093,-0.0035,-0.9868,-0.0090, 0.0059, 0.0136,-0.0116,-0.0128,-0.0107, 0.0006, 0.0083,-0.7833
17-Jan-2019 10:33:33.124,-0.0076,-0.0042,-0.9875,-0.0091, 0.0027, 0.0130,-0.0094,-0.0117,-0.0107, 0.0006, 0.0083,-0.7833
17-Jan-2019 10:33:33.164,-0.0098,-0.0061,-0.9866,-0.0105, 0.0030, 0.0132,-0.0116,-0.0138,-0.0118, 0.0006, 0.0083,-0.7833
17-Jan-2019 10:33:33.204,-0.0090,-0.0042,-0.9900,-0.0086, 0.0041, 0.0113,-0.0105,-0.0138,-0.0129, 0.0006, 0.0083,-0.7833
17-Jan-2019 10:33:33.244,-0.0080,-0.0047,-0.9903,-0.0096, 0.0030, 0.0100,-0.0105,-0.0128,-0.0129, 0.0006, 0.0083,-0.7833
17-Jan-2019 10:33:33.284,-0.0075,-0.0051,-0.9866,-0.0085, 0.0025, 0.0130,-0.0116,-0.0117,-0.0107, 0.0006, 0.0082,-0.7832
17-Jan-2019 10:33:33.324,-0.0088,-0.0040,-0.9845,-0.0089, 0.0043, 0.0130,-0.0116,-0.0128,-0.0118, 0.0006, 0.0082,-0.7832
17-Jan-2019 10:33:33.364,-0.0072,-0.0027,-0.9863,-0.0082, 0.0015, 0.0141,-0.0115,-0.0192,-0.0118, 0.0006, 0.0082,-0.7832
17-Jan-2019 10:33:33.403,-0.0086,-0.0065,-0.9887,-0.0090, 0.0038, 0.0119,-0.0116,-0.0128,-0.0129, 0.0006, 0.0082,-0.7832
17-Jan-2019 10:33:33.442,-0.0106,-0.0059,-0.9877,-0.0094, 0.0018, 0.0103,-0.0105,-0.0138,-0.0118, 0.0006, 0.0081,-0.7832
17-Jan-2019 10:33:33.483,-0.0106,-0.0045,-0.9888,-0.0117, 0.0025, 0.0140,-0.0126,-0.0181,-0.0118, 0.0006, 0.0081,-0.7832
17-Jan-2019 10:33:33.522,-0.0105,-0.0064,-0.9825,-0.0102, 0.0037, 0.0160,-0.0105,-0.0106,-0.0107, 0.0006, 0.0081,-0.7832
17-Jan-2019 10:33:33.562,-0.0109,-0.0035,-0.9836,-0.0100, 0.0016, 0.0133,-0.0084,-0.0138,-0.0129, 0.0006, 0.0081,-0.7832
17-Jan-2019 10:33:33.601,-0.0096,-0.0063,-0.9907,-0.0110, 0.0043, 0.0150,-0.0126,-0.0202,-0.0139, 0.0005, 0.0081,-0.7833
17-Jan-2019 10:33:33.641,-0.0096,-0.0050,-0.9834,-0.0103, 0.0030, 0.0112,-0.0073,-0.0085,-0.0118, 0.0005, 0.0081,-0.7833
17-Jan-2019 10:33:33.681,-0.0091,-0.0067,-0.9884,-0.0093, 0.0002, 0.0122,-0.0115,-0.0170,-0.0129, 0.0005, 0.0081,-0.7833
17-Jan-2019 10:33:33.721,-0.0085,-0.0072,-0.9887,-0.0102, 0.0029, 0.0122,-0.0094,-0.0149,-0.0107, 0.0004, 0.0081,-0.7833
17-Jan-2019 10:33:33.761,-0.0020, 0.0008,-0.9850,-0.0047, 0.0057, 0.0118,-0.0094,-0.0128,-0.0118, 0.0004, 0.0081,-0.7833
17-Jan-2019 10:33:33.800,-0.0070,-0.0041,-0.9870,-0.0064, 0.0063, 0.0144,-0.0126,-0.0138,-0.0118, 0.0004, 0.0081,-0.7832
17-Jan-2019 10:33:33.840,-0.0085,-0.0037,-0.9879,-0.0073, 0.0040, 0.0125,-0.0105,-0.0128,-0.0129, 0.0005, 0.0080,-0.7832
17-Jan-2019 10:33:33.879,-0.0096,-0.0048,-0.9905,-0.0090, 0.0041, 0.0114,-0.0126,-0.0138,-0.0118, 0.0005, 0.0080,-0.7832
17-Jan-2019 10:33:33.920,-0.0117,-0.0046,-0.9877,-0.0145, 0.0016, 0.0109,-0.0094,-0.0128,-0.0118, 0.0005, 0.0080,-0.7832
17-Jan-2019 10:33:33.959,-0.0113,-0.0079,-0.9846,-0.0110, 0.0008, 0.0153,-0.0105,-0.0138,-0.0118, 0.0005, 0.0080,-0.7832
17-Jan-2019 10:33:33.999,-0.0134,-0.0089,-0.9839,-0.0133, 0.0012, 0.0144,-0.0105,-0.0138,-0.0118, 0.0005, 0.0080,-0.7832
17-Jan-2019 10:33:34.039,-0.0121,-0.0078,-0.9827,-0.0132,-0.0010, 0.0179,-0.0094,-0.0149,-0.0107, 0.0005, 0.0080,-0.7832
17-Jan-2019 10:33:34.079,-0.0108,-0.0091,-0.9856,-0.0123, 0.0025, 0.0168,-0.0105,-0.0149,-0.0107, 0.0004, 0.0080,-0.7832
17-Jan-2019 10:33:34.118,-0.0118,-0.0046,-0.9888,-0.0113, 0.0033, 0.0116,-0.0084,-0.0138,-0.0118, 0.0004, 0.0081,-0.7832
17-Jan-2019 10:33:34.158, 0.0121, 0.0070,-0.9966, 0.0127, 0.0247,-0.0003,-0.0126,-0.0160,-0.0139, 0.0003, 0.0081,-0.7832
17-Jan-2019 10:33:34.198,-0.0071,-0.0079,-0.9848,-0.0115, 0.0043, 0.0157,-0.0105,-0.0149,-0.0118, 0.0004, 0.0081,-0.7832
17-Jan-2019 10:33:34.237,-0.0101,-0.0040,-0.9868,-0.0109, 0.0006, 0.0162,-0.0116,-0.0138,-0.0118, 0.0003, 0.0080,-0.7833
17-Jan-2019 10:33:34.277,-0.0108,-0.0034,-0.9853,-0.0065, 0.0041, 0.0138,-0.0116,-0.0138,-0.0118, 0.0004, 0.0080,-0.7832
17-Jan-2019 10:33:34.317,-0.0092,-0.0018,-0.9857,-0.0108, 0.0051, 0.0155,-0.0116,-0.0128,-0.0107, 0.0004, 0.0080,-0.7832
17-Jan-2019 10:33:34.356,-0.0106,-0.0033,-0.9907,-0.0129, 0.0030, 0.0085,-0.0105,-0.0128,-0.0118, 0.0004, 0.0080,-0.7832
17-Jan-2019 10:33:34.396,-0.0111,-0.0070,-0.9866,-0.0091, 0.0003, 0.0121,-0.0094,-0.0149,-0.0129, 0.0004, 0.0080,-0.7832
17-Jan-2019 10:33:34.436,-0.0102,-0.0074,-0.9819,-0.0097, 0.0015, 0.0144,-0.0105,-0.0149,-0.0107, 0.0004, 0.0080,-0.7831
17-Jan-2019 10:33:34.476,-0.0065, 0.0040,-0.9870,-0.0080, 0.0084, 0.0140,-0.0115,-0.0181,-0.0118, 0.0003, 0.0080,-0.7831
17-Jan-2019 10:33:34.516,-0.0102,-0.0056,-0.9804,-0.0081,-0.0005, 0.0177,-0.0094,-0.0117,-0.0129, 0.0003, 0.0080,-0.7831
17-Jan-2019 10:33:34.555,-0.0041,-0.0054,-0.9836,-0.0033, 0.0026, 0.0176,-0.0115,-0.0160,-0.0118, 0.0003, 0.0080,-0.7831
17-Jan-2019 10:33:34.595,-0.0087,-0.0040,-0.9881,-0.0098, 0.0056, 0.0131,-0.0115,-0.0160,-0.0118, 0.0003, 0.0080,-0.7831
17-Jan-2019 10:33:34.635,-0.0071,-0.0102,-0.9899,-0.0059, 0.0019, 0.0107,-0.0115,-0.0160,-0.0129, 0.0003, 0.0080,-0.7831
17-Jan-2019 10:33:34.674,-0.0084,-0.0074,-0.9897,-0.0077, 0.0006, 0.0128,-0.0116,-0.0128,-0.0129, 0.0003, 0.0080,-0.7831
17-Jan-2019 10:33:34.714,-0.0073,-0.0091,-0.9857,-0.0127, 0.0054, 0.0132,-0.0094,-0.0138,-0.0129, 0.0003, 0.0080,-0.7831
17-Jan-2019 10:33:34.753,-0.0143,-0.0011,-0.9843,-0.0136, 0.0055, 0.0118,-0.0105,-0.0085,-0.0118, 0.0003, 0.0080,-0.7831
17-Jan-2019 10:33:34.794,-0.0107,-0.0086,-0.9870,-0.0079, 0.0004, 0.0157,-0.0105,-0.0149,-0.0118, 0.0003, 0.0080,-0.7831
17-Jan-2019 10:33:34.833,-0.0061,-0.0047,-0.9891,-0.0072, 0.0026, 0.0123,-0.0084,-0.0149,-0.0107, 0.0003, 0.0081,-0.7831
17-Jan-2019 10:33:34.873,-0.0095,-0.0085,-0.9890,-0.0110, 0.0010, 0.0138,-0.0094,-0.0149,-0.0118, 0.0002, 0.0081,-0.7831
17-Jan-2019 10:33:34.913,-0.0099,-0.0022,-0.9914,-0.0069, 0.0051, 0.0098,-0.0105,-0.0160,-0.0129, 0.0002, 0.0081,-0.7831
17-Jan-2019 10:33:34.953,-0.0071,-0.0045,-0.9870,-0.0073, 0.0011, 0.0147,-0.0105,-0.0149,-0.0129, 0.0002, 0.0081,-0.7831
17-Jan-2019 10:33:34.993,-0.0087,-0.0002,-0.9852,-0.0091, 0.0083, 0.0118,-0.0094,-0.0149,-0.0129, 0.0002, 0.0081,-0.7831
17-Jan-2019 10:33:35.032,-0.0099,-0.0054,-0.9814,-0.0069,-0.0004, 0.0185,-0.0094,-0.0170,-0.0129, 0.0001, 0.0081,-0.7831
17-Jan-2019 10:33:35.072,-0.0052,-0.0085,-0.9818,-0.0085, 0.0052, 0.0141,-0.0105,-0.0096,-0.0118, 0.0002, 0.0081,-0.7831
17-Jan-2019 10:33:35.112,-0.0112, 0.0009,-0.9882,-0.0085, 0.0067, 0.0150,-0.0094,-0.0181,-0.0107, 0.0002, 0.0082,-0.7831
17-Jan-2019 10:33:35.151,-0.0067,-0.0071,-0.9864,-0.0055, 0.0022, 0.0099,-0.0105,-0.0117,-0.0107, 0.0002, 0.0082,-0.7831
17-Jan-2019 10:33:35.191,-0.0135,-0.0001,-0.9942,-0.0126, 0.0056, 0.0094,-0.0116,-0.0149,-0.0097, 0.0002, 0.0082,-0.7831
17-Jan-2019 10:33:35.231,-0.0055,-0.0092,-0.9881,-0.0044, 0.0000, 0.0105,-0.0105,-0.0128,-0.0129, 0.0002, 0.0081,-0.7831
17-Jan-2019 10:33:35.271,-0.0158,-0.0044,-0.9817,-0.0122, 0.0080, 0.0179,-0.0084,-0.0128,-0.0118, 0.0002, 0.0082,-0.7831
17-Jan-2019 10:33:35.310,-0.0106,-0.0091,-0.9865,-0.0136,-0.0022, 0.0147,-0.0094,-0.0128,-0.0107, 0.0002, 0.0082,-0.7831
17-Jan-2019 10:33:35.349,-0.0091,-0.0005,-0.9917,-0.0108, 0.0102, 0.0095,-0.0116,-0.0138,-0.0107, 0.0002, 0.0082,-0.7831
17-Jan-2019 10:33:35.389,-0.0065,-0.0067,-0.9819,-0.0055, 0.0010, 0.0171,-0.0105,-0.0138,-0.0118, 0.0001, 0.0082,-0.7831
17-Jan-2019 10:33:35.430,-0.0096,-0.0007,-0.9920,-0.0103, 0.0097, 0.0124,-0.0084,-0.0128,-0.0097, 0.0001, 0.0082,-0.7831
17-Jan-2019 10:33:35.470,-0.0126,-0.0088,-0.9879,-0.0086,-0.0023, 0.0131,-0.0105,-0.0138,-0.0107, 0.0001, 0.0082,-0.7830
17-Jan-2019 10:33:35.510,-0.0087,-0.0020,-0.9897,-0.0105, 0.0066, 0.0111,-0.0084,-0.0138,-0.0107, 0.0000, 0.0082,-0.7830
17-Jan-2019 10:33:35.548,-0.0065,-0.0044,-0.9900,-0.0037, 0.0046, 0.0086,-0.0115,-0.0149,-0.0118, 0.0000, 0.0082,-0.7831
17-Jan-2019 10:33:35.587,-0.0135,-0.0071,-0.9809,-0.0138, 0.0028, 0.0176,-0.0116,-0.0128,-0.0118, 0.0001, 0.0082,-0.7831
17-Jan-2019 10:33:35.627,-0.0068,-0.0050,-0.9824,-0.0068, 0.0034, 0.0182,-0.0094,-0.0128,-0.0118, 0.0001, 0.0082,-0.7831
17-Jan-2019 10:33:35.667,-0.0110,-0.0036,-0.9813,-0.0064, 0.0046, 0.0167,-0.0115,-0.0170,-0.0118, 0.0000, 0.0082,-0.7831
17-Jan-2019 10:33:35.709,-0.0107,-0.0045,-0.9830,-0.0120, 0.0025, 0.0181,-0.0094,-0.0149,-0.0107, 0.0000, 0.0082,-0.7831
17-Jan-2019 10:33:35.748,-0.0058,-0.0014,-0.9854,-0.0078, 0.0044, 0.0147,-0.0084,-0.0117,-0.0107, 0.0000, 0.0082,-0.7831
17-Jan-2019 10:33:35.786,-0.0098,-0.0015,-0.9907,-0.0084, 0.0046, 0.0113,-0.0084,-0.0117,-0.0118,-0.0000, 0.0082,-0.7831
17-Jan-2019 10:33:35.826,-0.0171, 0.0010,-0.9997,-0.0135, 0.0009, 0.0038,-0.0094,-0.0117,-0.0129, 0.0000, 0.0082,-0.7831
17-Jan-2019 10:33:35.866,-0.0123, 0.0009,-0.9996,-0.0059, 0.0016,-0.0013,-0.0084,-0.0127,-0.0128,-0.0000, 0.0083,-0.7830
17-Jan-2019 10:33:35.906,-0.0126,-0.0015,-0.9932,-0.0054,-0.0007, 0.0066,-0.0094,-0.0138,-0.0118,-0.0000, 0.0083,-0.7830
17-Jan-2019 10:33:35.946,-0.0130,-0.0014,-0.9848,-0.0140, 0.0024, 0.0094,-0.0105,-0.0138,-0.0118,-0.0000, 0.0083,-0.7830
17-Jan-2019 10:33:35.986,-0.0104,-0.0024,-0.9834,-0.0097,-0.0011, 0.0152,-0.0084,-0.0106,-0.0107,-0.0000, 0.0083,-0.7830
17-Jan-2019 10:33:36.026,-0.0109, 0.0009,-0.9818,-0.0122, 0.0049, 0.0140,-0.0105,-0.0149,-0.0139,-0.0001, 0.0083,-0.7830
17-Jan-2019 10:33:36.065,-0.0066,-0.0031,-0.9843,-0.0078, 0.0022, 0.0132,-0.0116,-0.0138,-0.0118,-0.0001, 0.0083,-0.7830
17-Jan-2019 10:33:36.107,-0.0084,-0.0002,-0.9864,-0.0103, 0.0088, 0.0116,-0.0115,-0.0149,-0.0129,-0.0001, 0.0082,-0.7830
17-Jan-2019 10:33:36.145,-0.0090,-0.0051,-0.9841,-0.0079, 0.0046, 0.0091,-0.0094,-0.0128,-0.0118,-0.0001, 0.0082,-0.7830
17-Jan-2019 10:33:36.184,-0.0115,-0.0048,-0.9847,-0.0094, 0.0065, 0.0092,-0.0094,-0.0138,-0.0118,-0.0001, 0.0083,-0.7830
17-Jan-2019 10:33:36.224,-0.0081,-0.0058,-0.9841,-0.0090, 0.0021, 0.0139,-0.0115,-0.0149,-0.0118,-0.0001, 0.0082,-0.7830
17-Jan-2019 10:33:36.264,-0.0079,-0.0039,-0.9876,-0.0065, 0.0048, 0.0112,-0.0116,-0.0128,-0.0118,-0.0000, 0.0082,-0.7830
17-Jan-2019 10:33:36.303,-0.0099,-0.0051,-0.9881,-0.0094, 0.0009, 0.0087,-0.0115,-0.0149,-0.0118,-0.0000, 0.0082,-0.7830
17-Jan-2019 10:33:36.343,-0.0116,-0.0033,-0.9881,-0.0116, 0.0019, 0.0074,-0.0105,-0.0160,-0.0118,-0.0001, 0.0082,-0.7830
17-Jan-2019 10:33:36.383,-0.0085,-0.0043,-0.9810,-0.0075, 0.0025, 0.0148,-0.0126,-0.0107,-0.0118,-0.0000, 0.0082,-0.7830
17-Jan-2019 10:33:36.423,-0.0099,-0.0033,-0.9784,-0.0085, 0.0030, 0.0181,-0.0105,-0.0138,-0.0118,-0.0001, 0.0082,-0.7830
17-Jan-2019 10:33:36.463,-0.0106,-0.0055,-0.9855,-0.0092, 0.0047, 0.0162,-0.0105,-0.0138,-0.0118,-0.0001, 0.0082,-0.7830
17-Jan-2019 10:33:36.502,-0.0111,-0.0042,-0.9838,-0.0110, 0.0008, 0.0145,-0.0095,-0.0096,-0.0107,-0.0000, 0.0082,-0.7829
17-Jan-2019 10:33:36.541,-0.0093,-0.0052,-0.9856,-0.0093, 0.0060, 0.0132,-0.0105,-0.0117,-0.0129,-0.0000, 0.0082,-0.7829
17-Jan-2019 10:33:36.582,-0.0112,-0.0063,-0.9869,-0.0090, 0.0042, 0.0147,-0.0105,-0.0138,-0.0129,-0.0000, 0.0082,-0.7829
17-Jan-2019 10:33:36.621,-0.0096,-0.0043,-0.9886,-0.0083, 0.0031, 0.0140,-0.0105,-0.0138,-0.0118,-0.0000, 0.0082,-0.7829
17-Jan-2019 10:33:36.661,-0.0088,-0.0044,-0.9891,-0.0094, 0.0051, 0.0124,-0.0094,-0.0128,-0.0107,-0.0000, 0.0082,-0.7829
17-Jan-2019 10:33:36.701,-0.0100,-0.0040,-0.9868,-0.0082, 0.0050, 0.0111,-0.0116,-0.0117,-0.0107,-0.0001, 0.0082,-0.7829
17-Jan-2019 10:33:36.740,-0.0104,-0.0055,-0.9872,-0.0112, 0.0026, 0.0154,-0.0094,-0.0128,-0.0118,-0.0001, 0.0082,-0.7829
17-Jan-2019 10:33:36.780,-0.0094,-0.0051,-0.9851,-0.0099, 0.0025, 0.0157,-0.0105,-0.0138,-0.0118,-0.0001, 0.0082,-0.7829
17-Jan-2019 10:33:36.820,-0.0097,-0.0037,-0.9867,-0.0099, 0.0056, 0.0184,-0.0105,-0.0106,-0.0118,-0.0001, 0.0082,-0.7829
17-Jan-2019 10:33:36.860,-0.0090,-0.0059,-0.9887,-0.0077, 0.0039, 0.0115,-0.0116,-0.0128,-0.0129,-0.0001, 0.0082,-0.7829
17-Jan-2019 10:33:36.899,-0.0115,-0.0044,-0.9904,-0.0120, 0.0042, 0.0160,-0.0105,-0.0128,-0.0118,-0.0001, 0.0082,-0.7830
17-Jan-2019 10:33:36.939,-0.0071,-0.0030,-0.9875,-0.0069, 0.0041, 0.0100,-0.0116,-0.0117,-0.0129,-0.0001, 0.0082,-0.7829
17-Jan-2019 10:33:36.979,-0.0112,-0.0060,-0.9856,-0.0106, 0.0033, 0.0164,-0.0116,-0.0128,-0.0107,-0.0001, 0.0081,-0.7829
17-Jan-2019 10:33:37.019,-0.0096,-0.0058,-0.9875,-0.0072, 0.0048, 0.0124,-0.0116,-0.0138,-0.0118,-0.0001, 0.0081,-0.7829
17-Jan-2019 10:33:37.058,-0.0108,-0.0050,-0.9875,-0.0090, 0.0039, 0.0141,-0.0094,-0.0117,-0.0118,-0.0001, 0.0081,-0.7829
17-Jan-2019 10:33:37.098,-0.0082,-0.0064,-0.9863,-0.0089, 0.0038, 0.0129,-0.0116,-0.0138,-0.0097,-0.0001, 0.0081,-0.7829
17-Jan-2019 10:33:37.137,-0.0096,-0.0039,-0.9849,-0.0080, 0.0057, 0.0138,-0.0105,-0.0117,-0.0118,-0.0001, 0.0081,-0.7829
17-Jan-2019 10:33:37.178,-0.0102,-0.0060,-0.9860,-0.0090, 0.0035, 0.0132,-0.0115,-0.0160,-0.0107,-0.0001, 0.0081,-0.7829
17-Jan-2019 10:33:37.217,-0.0081,-0.0041,-0.9875,-0.0072, 0.0044, 0.0126,-0.0126,-0.0128,-0.0107,-0.0001, 0.0081,-0.7829
17-Jan-2019 10:33:37.257,-0.0097,-0.0051,-0.9856,-0.0101, 0.0043, 0.0125,-0.0116,-0.0128,-0.0118,-0.0001, 0.0081,-0.7829
17-Jan-2019 10:33:37.297,-0.0077,-0.0054,-0.9853,-0.0080, 0.0036, 0.0133,-0.0084,-0.0138,-0.0129,-0.0001, 0.0081,-0.7829
17-Jan-2019 10:33:37.339,-0.0097,-0.0058,-0.9880,-0.0091, 0.0035, 0.0135,-0.0105,-0.0138,-0.0118,-0.0001, 0.0081,-0.7829
17-Jan-2019 10:33:37.376,-0.0088,-0.0041,-0.9859,-0.0101, 0.0017, 0.0139,-0.0094,-0.0149,-0.0118,-0.0001, 0.0081,-0.7829
17-Jan-2019 10:33:37.416,-0.0086,-0.0019,-0.9877,-0.0082, 0.0045, 0.0126,-0.0105,-0.0149,-0.0118,-0.0002, 0.0080,-0.7829
17-Jan-2019 10:33:37.456,-0.0098,-0.0064,-0.9854,-0.0103,-0.0009, 0.0176,-0.0094,-0.0106,-0.0107,-0.0002, 0.0081,-0.7829
17-Jan-2019 10:33:37.495,-0.0082,-0.0039,-0.9882,-0.0084, 0.0066, 0.0110,-0.0115,-0.0149,-0.0107,-0.0002, 0.0081,-0.7829
17-Jan-2019 10:33:37.535,-0.0091,-0.0051,-0.9857,-0.0091, 0.0004, 0.0148,-0.0084,-0.0128,-0.0118,-0.0002, 0.0081,-0.7829
17-Jan-2019 10:33:37.575,-0.0098,-0.0037,-0.9877,-0.0093, 0.0064, 0.0088,-0.0105,-0.0149,-0.0118,-0.0002, 0.0081,-0.7829
17-Jan-2019 10:33:37.615,-0.0101,-0.0038,-0.9898,-0.0102, 0.0007, 0.0123,-0.0105,-0.0149,-0.0118,-0.0002, 0.0081,-0.7829
17-Jan-2019 10:33:37.654,-0.0093,-0.0063,-0.9870,-0.0077, 0.0050, 0.0109,-0.0094,-0.0117,-0.0107,-0.0002, 0.0081,-0.7829
17-Jan-2019 10:33:37.694,-0.0082,-0.0033,-0.9861,-0.0092, 0.0037, 0.0134,-0.0084,-0.0096,-0.0107,-0.0002, 0.0081,-0.7828
17-Jan-2019 10:33:37.733,-0.0088,-0.0063,-0.9831,-0.0082, 0.0034, 0.0149,-0.0105,-0.0128,-0.0118,-0.0002, 0.0081,-0.7828
17-Jan-2019 10:33:37.774,-0.0097,-0.0041,-0.9863,-0.0088, 0.0063, 0.0168,-0.0105,-0.0128,-0.0118,-0.0002, 0.0081,-0.7828
17-Jan-2019 10:33:37.813,-0.0095,-0.0036,-0.9868,-0.0092, 0.0037, 0.0154,-0.0105,-0.0138,-0.0129,-0.0002, 0.0081,-0.7828
17-Jan-2019 10:33:37.853,-0.0076,-0.0054,-0.9877,-0.0079, 0.0030, 0.0141,-0.0105,-0.0160,-0.0129,-0.0002, 0.0081,-0.7828
17-Jan-2019 10:33:37.892,-0.0088,-0.0022,-0.9863,-0.0103, 0.0024, 0.0151,-0.0094,-0.0149,-0.0118,-0.0002, 0.0081,-0.7828
17-Jan-2019 10:33:37.932,-0.0099,-0.0044,-0.9853,-0.0083, 0.0020, 0.0158,-0.0137,-0.0149,-0.0107,-0.0002, 0.0081,-0.7828
17-Jan-2019 10:33:37.972,-0.0084,-0.0057,-0.9873,-0.0080, 0.0046, 0.0162,-0.0105,-0.0149,-0.0107,-0.0002, 0.0082,-0.7828
17-Jan-2019 10:33:38.012,-0.0081,-0.0060,-0.9875,-0.0096, 0.0036, 0.0085,-0.0105,-0.0128,-0.0107,-0.0002, 0.0081,-0.7828
17-Jan-2019 10:33:38.051,-0.0089,-0.0047,-0.9881,-0.0096, 0.0053, 0.0131,-0.0105,-0.0085,-0.0129,-0.0002, 0.0081,-0.7828
17-Jan-2019 10:33:38.091,-0.0096,-0.0048,-0.9874,-0.0094, 0.0037, 0.0117,-0.0094,-0.0096,-0.0128,-0.0002, 0.0081,-0.7828
17-Jan-2019 10:33:38.131,-0.0103,-0.0049,-0.9874,-0.0095, 0.0028, 0.0159,-0.0094,-0.0159,-0.0129,-0.0002, 0.0081,-0.7828
17-Jan-2019 10:33:38.171,-0.0090,-0.0047,-0.9901,-0.0088, 0.0019, 0.0137,-0.0094,-0.0170,-0.0118,-0.0002, 0.0081,-0.7828
17-Jan-2019 10:33:38.210,-0.0095,-0.0025,-0.9869,-0.0091, 0.0025, 0.0138,-0.0094,-0.0149,-0.0107,-0.0002, 0.0082,-0.7828
17-Jan-2019 10:33:38.250,-0.0081,-0.0052,-0.9861,-0.0069, 0.0047, 0.0160,-0.0105,-0.0138,-0.0118,-0.0002, 0.0082,-0.7828
17-Jan-2019 10:33:38.290,-0.0086,-0.0054,-0.9845,-0.0102, 0.0052, 0.0119,-0.0115,-0.0149,-0.0129,-0.0002, 0.0082,-0.7828
17-Jan-2019 10:33:38.330,-0.0085,-0.0045,-0.9833,-0.0098, 0.0054, 0.0113,-0.0094,-0.0117,-0.0129,-0.0002, 0.0082,-0.7828
17-Jan-2019 10:33:38.369,-0.0081,-0.0049,-0.9847,-0.0093, 0.0045, 0.0120,-0.0094,-0.0138,-0.0129,-0.0002, 0.0083,-0.7828
17-Jan-2019 10:33:38.409,-0.0101,-0.0039,-0.9878,-0.0095, 0.0044, 0.0160,-0.0094,-0.0149,-0.0129,-0.0002, 0.0083,-0.7828
17-Jan-2019 10:33:38.449,-0.0087,-0.0036,-0.9861,-0.0091, 0.0022, 0.0146,-0.0116,-0.0128,-0.0129,-0.0002, 0.0083,-0.7828
17-Jan-2019 10:33:38.488,-0.0093,-0.0029,-0.9855,-0.0077, 0.0038, 0.0158,-0.0094,-0.0138,-0.0118,-0.0002, 0.0083,-0.7829
17-Jan-2019 10:33:38.528,-0.0091,-0.0054,-0.9863,-0.0099, 0.0041, 0.0144,-0.0084,-0.0127,-0.0128,-0.0002, 0.0083,-0.7829
17-Jan-2019 10:33:38.568,-0.0097,-0.0053,-0.9872,-0.0098, 0.0051, 0.0135,-0.0105,-0.0117,-0.0129,-0.0002, 0.0083,-0.7829
17-Jan-2019 10:33:38.607,-0.0078,-0.0042,-0.9875,-0.0078, 0.0048, 0.0120,-0.0105,-0.0128,-0.0118,-0.0003, 0.0084,-0.7829
17-Jan-2019 10:33:38.648,-0.0072,-0.0049,-0.9869,-0.0072, 0.0042, 0.0126,-0.0084,-0.0138,-0.0118,-0.0003, 0.0084,-0.7829
17-Jan-2019 10:33:38.687,-0.0116,-0.0058,-0.9866,-0.0123, 0.0022, 0.0159,-0.0116,-0.0128,-0.0118,-0.0003, 0.0084,-0.7830
17-Jan-2019 10:33:38.727,-0.0072,-0.0038,-0.9876,-0.0068, 0.0033, 0.0142,-0.0105,-0.0128,-0.0139,-0.0003, 0.0084,-0.7830
17-Jan-2019 10:33:38.767,-0.0113,-0.0061,-0.9861,-0.0102, 0.0027, 0.0143,-0.0094,-0.0159,-0.0139,-0.0003, 0.0084,-0.7830
17-Jan-2019 10:33:38.807,-0.0086,-0.0035,-0.9872,-0.0093, 0.0048, 0.0159,-0.0083,-0.0159,-0.0129,-0.0003, 0.0084,-0.7830
17-Jan-2019 10:33:38.846,-0.0076,-0.0049,-0.9881,-0.0080, 0.0040, 0.0090,-0.0105,-0.0160,-0.0118,-0.0003, 0.0084,-0.7830
17-Jan-2019 10:33:38.886,-0.0101,-0.0038,-0.9877,-0.0098, 0.0076, 0.0149,-0.0115,-0.0149,-0.0139,-0.0003, 0.0084,-0.7830
17-Jan-2019 10:33:38.925,-0.0094,-0.0049,-0.9836,-0.0082, 0.0024, 0.0137,-0.0073,-0.0117,-0.0118,-0.0004, 0.0084,-0.7830
17-Jan-2019 10:33:38.966,-0.0105,-0.0043,-0.9872,-0.0100, 0.0041, 0.0154,-0.0094,-0.0117,-0.0129,-0.0004, 0.0085,-0.7831
17-Jan-2019 10:33:39.005,-0.0085,-0.0045,-0.9862,-0.0090, 0.0035, 0.0147,-0.0084,-0.0149,-0.0118,-0.0004, 0.0085,-0.7831
17-Jan-2019 10:33:39.045,-0.0085,-0.0056,-0.9833,-0.0076, 0.0042, 0.0175,-0.0094,-0.0149,-0.0118,-0.0004, 0.0085,-0.7831
17-Jan-2019 10:33:39.085,-0.0098,-0.0037,-0.9874,-0.0100, 0.0023, 0.0153,-0.0083,-0.0160,-0.0107,-0.0004, 0.0085,-0.7831
17-Jan-2019 10:33:39.124,-0.0074,-0.0033,-0.9908,-0.0084, 0.0048, 0.0071,-0.0105,-0.0170,-0.0129,-0.0004, 0.0085,-0.7831
17-Jan-2019 10:33:39.164,-0.0089,-0.0037,-0.9922,-0.0089, 0.0024, 0.0110,-0.0115,-0.0160,-0.0129,-0.0005, 0.0085,-0.7831
17-Jan-2019 10:33:39.204,-0.0092,-0.0046,-0.9904,-0.0091, 0.0037, 0.0075,-0.0126,-0.0128,-0.0118,-0.0004, 0.0085,-0.7831
17-Jan-2019 10:33:39.244,-0.0106,-0.0053,-0.9872,-0.0109, 0.0024, 0.0145,-0.0115,-0.0149,-0.0129,-0.0005, 0.0085,-0.7832
17-Jan-2019 10:33:39.283,-0.0074,-0.0036,-0.9855,-0.0056, 0.0054, 0.0123,-0.0094,-0.0106,-0.0128,-0.0005, 0.0085,-0.7832
17-Jan-2019 10:33:39.323,-0.0107,-0.0061,-0.9873,-0.0095, 0.0026, 0.0158,-0.0115,-0.0138,-0.0129,-0.0005, 0.0085,-0.7832
17-Jan-2019 10:33:39.362,-0.0098,-0.0061,-0.9868,-0.0086, 0.0030, 0.0121,-0.0094,-0.0128,-0.0129,-0.0005, 0.0086,-0.7832
17-Jan-2019 10:33:39.402,-0.0078,-0.0026,-0.9866,-0.0074, 0.0043, 0.0113,-0.0116,-0.0128,-0.0129,-0.0005, 0.0086,-0.7832
17-Jan-2019 10:33:39.442,-0.0104,-0.0077,-0.9867,-0.0114, 0.0029, 0.0154,-0.0094,-0.0138,-0.0129,-0.0005, 0.0086,-0.7832
17-Jan-2019 10:33:39.482,-0.0089,-0.0033,-0.9847,-0.0070, 0.0047, 0.0127,-0.0105,-0.0096,-0.0129,-0.0005, 0.0086,-0.7832
17-Jan-2019 10:33:39.521,-0.0094,-0.0058,-0.9869,-0.0093, 0.0045, 0.0150,-0.0105,-0.0138,-0.0118,-0.0005, 0.0086,-0.7832
17-Jan-2019 10:33:39.561,-0.0079,-0.0036,-0.9865,-0.0087, 0.0035, 0.0114,-0.0126,-0.0128,-0.0118,-0.0005, 0.0085,-0.7832
17-Jan-2019 10:33:39.601,-0.0110,-0.0053,-0.9884,-0.0105, 0.0037, 0.0120,-0.0105,-0.0128,-0.0129,-0.0005, 0.0085,-0.7833
17-Jan-2019 10:33:39.640,-0.0086,-0.0034,-0.9883,-0.0099, 0.0040, 0.0128,-0.0105,-0.0138,-0.0129,-0.0005, 0.0085,-0.7833
17-Jan-2019 10:33:39.681,-0.0084,-0.0056,-0.9859,-0.0086, 0.0039, 0.0117,-0.0115,-0.0149,-0.0107,-0.0005, 0.0085,-0.7833
17-Jan-2019 10:33:39.720,-0.0116,-0.0046,-0.9885,-0.0104, 0.0023, 0.0139,-0.0105,-0.0160,-0.0118,-0.0005, 0.0085,-0.7833
17-Jan-2019 10:33:39.760,-0.0102,-0.0061,-0.9867,-0.0096, 0.0032, 0.0130,-0.0105,-0.0128,-0.0118,-0.0005, 0.0085,-0.7833
17-Jan-2019 10:33:39.800,-0.0061,-0.0051,-0.9888,-0.0047, 0.0045, 0.0122,-0.0105,-0.0149,-0.0129,-0.0005, 0.0085,-0.7833
17-Jan-2019 10:33:39.840,-0.0111,-0.0062,-0.9900,-0.0113, 0.0029, 0.0123,-0.0094,-0.0149,-0.0139,-0.0005, 0.0085,-0.7833
17-Jan-2019 10:33:39.879,-0.0088,-0.0035,-0.9903,-0.0071, 0.0048, 0.0101,-0.0084,-0.0117,-0.0118,-0.0005, 0.0085,-0.7833
17-Jan-2019 10:33:39.918,-0.0100,-0.0062,-0.9902,-0.0079, 0.0037, 0.0133,-0.0115,-0.0149,-0.0129,-0.0005, 0.0085,-0.7833
17-Jan-2019 10:33:39.959,-0.0092,-0.0050,-0.9858,-0.0093, 0.0025, 0.0105,-0.0105,-0.0149,-0.0129,-0.0005, 0.0085,-0.7833
17-Jan-2019 10:33:39.998,-0.0099,-0.0062,-0.9982,-0.0070, 0.0086, 0.0076,-0.0084,-0.0138,-0.0107,-0.0005, 0.0085,-0.7833
17-Jan-2019 10:33:40.038,-0.0100,-0.0052,-1.0110,-0.0069, 0.0013,-0.0074,-0.0094,-0.0170,-0.0107,-0.0005, 0.0085,-0.7833
17-Jan-2019 10:33:40.078,-0.0090,-0.0038,-1.0308,-0.0082, 0.0064,-0.0252,-0.0126,-0.0139,-0.0097,-0.0005, 0.0085,-0.7832
17-Jan-2019 10:33:40.117,-0.0119,-0.0078,-1.0326,-0.0102, 0.0022,-0.0324,-0.0105,-0.0128,-0.0107,-0.0005, 0.0085,-0.7832
17-Jan-2019 10:33:40.157,-0.0088,-0.0032,-1.0304,-0.0069, 0.0074,-0.0281,-0.0116,-0.0138,-0.0118,-0.0005, 0.0085,-0.7832
17-Jan-2019 10:33:40.197,-0.0094,-0.0047,-1.0288,-0.0073, 0.0016,-0.0283,-0.0105,-0.0128,-0.0107,-0.0005, 0.0085,-0.7832
17-Jan-2019 10:33:40.237,-0.0107,-0.0068,-1.0284,-0.0120, 0.0035,-0.0296,-0.0105,-0.0138,-0.0118,-0.0006, 0.0085,-0.7832
17-Jan-2019 10:33:40.276,-0.0076,-0.0040,-1.0256,-0.0062, 0.0026,-0.0278,-0.0094,-0.0128,-0.0129,-0.0006, 0.0085,-0.7832
17-Jan-2019 10:33:40.316,-0.0087,-0.0037,-1.0284,-0.0097, 0.0040,-0.0283,-0.0105,-0.0160,-0.0118,-0.0006, 0.0085,-0.7832
17-Jan-2019 10:33:40.355,-0.0094,-0.0061,-1.0251,-0.0083, 0.0014,-0.0284,-0.0105,-0.0170,-0.0107,-0.0006, 0.0085,-0.7832
17-Jan-2019 10:33:40.396,-0.0094,-0.0044,-1.0291,-0.0081, 0.0014,-0.0291,-0.0116,-0.0138,-0.0107,-0.0006, 0.0085,-0.7832
17-Jan-2019 10:33:40.435,-0.0108,-0.0049,-1.0279,-0.0090, 0.0036,-0.0332,-0.0094,-0.0106,-0.0107,-0.0006, 0.0085,-0.7832
17-Jan-2019 10:33:40.474,-0.0101,-0.0056,-1.0321,-0.0084, 0.0022,-0.0301,-0.0094,-0.0138,-0.0107,-0.0006, 0.0085,-0.7832
17-Jan-2019 10:33:40.514,-0.0111,-0.0058,-1.0308,-0.0077, 0.0002,-0.0308,-0.0094,-0.0149,-0.0129,-0.0006, 0.0085,-0.7832
17-Jan-2019 10:33:40.554,-0.0088,-0.0057,-1.0335,-0.0092, 0.0075,-0.0328,-0.0094,-0.0117,-0.0118,-0.0006, 0.0085,-0.7832
17-Jan-2019 10:33:40.594,-0.0124,-0.0038,-1.0324,-0.0110, 0.0021,-0.0327,-0.0116,-0.0128,-0.0129,-0.0006, 0.0085,-0.7832
17-Jan-2019 10:33:40.633,-0.0074,-0.0087,-1.0331,-0.0053, 0.0002,-0.0320,-0.0115,-0.0149,-0.0129,-0.0006, 0.0084,-0.7832
17-Jan-2019 10:33:40.673,-0.0099,-0.0039,-1.0297,-0.0130, 0.0041,-0.0310,-0.0105,-0.0117,-0.0107,-0.0006, 0.0084,-0.7832
17-Jan-2019 10:33:40.713,-0.0086,-0.0041,-1.0291,-0.0066, 0.0055,-0.0320,-0.0094,-0.0138,-0.0107,-0.0006, 0.0084,-0.7832
17-Jan-2019 10:33:40.753,-0.0091,-0.0068,-1.0290,-0.0093, 0.0018,-0.0273,-0.0094,-0.0138,-0.0129,-0.0006, 0.0085,-0.7832
17-Jan-2019 10:33:40.793,-0.0095,-0.0063,-1.0306,-0.0076, 0.0016,-0.0306,-0.0105,-0.0149,-0.0118,-0.0006, 0.0085,-0.7832
17-Jan-2019 10:33:40.833,-0.0094,-0.0028,-1.0323,-0.0095, 0.0039,-0.0306,-0.0105,-0.0117,-0.0118,-0.0007, 0.0085,-0.7832
17-Jan-2019 10:33:40.873,-0.0087,-0.0049,-1.0298,-0.0077, 0.0028,-0.0322,-0.0105,-0.0138,-0.0107,-0.0007, 0.0085,-0.7832
17-Jan-2019 10:33:40.912,-0.0089,-0.0075,-1.0303,-0.0080, 0.0037,-0.0299,-0.0105,-0.0149,-0.0107,-0.0007, 0.0084,-0.7832
17-Jan-2019 10:33:40.952,-0.0106,-0.0049,-1.0285,-0.0072, 0.0030,-0.0316,-0.0116,-0.0117,-0.0118,-0.0007, 0.0084,-0.7832
17-Jan-2019 10:33:40.992,-0.0096,-0.0038,-1.0281,-0.0094, 0.0018,-0.0291,-0.0116,-0.0117,-0.0118,-0.0007, 0.0084,-0.7832
17-Jan-2019 10:33:41.031,-0.0099,-0.0061,-1.0263,-0.0089, 0.0018,-0.0275,-0.0094,-0.0160,-0.0118,-0.0007, 0.0084,-0.7832
17-Jan-2019 10:33:41.071,-0.0106,-0.0079,-1.0259,-0.0085, 0.0043,-0.0279,-0.0116,-0.0128,-0.0129,-0.0007, 0.0084,-0.7832
17-Jan-2019 10:33:41.111,-0.0093,-0.0040,-1.0253,-0.0085, 0.0048,-0.0267,-0.0094,-0.0117,-0.0129,-0.0007, 0.0084,-0.7832
17-Jan-2019 10:33:41.150,-0.0089,-0.0047,-1.0241,-0.0097, 0.0011,-0.0226,-0.0105,-0.0117,-0.0129,-0.0007, 0.0083,-0.7832
17-Jan-2019 10:33:41.191,-0.0095,-0.0078,-1.0228,-0.0093, 0.0013,-0.0223,-0.0094,-0.0138,-0.0118,-0.0007, 0.0083,-0.7832
17-Jan-2019 10:33:41.230,-0.0106,-0.0053,-1.0230,-0.0088, 0.0043,-0.0242,-0.0105,-0.0138,-0.0129,-0.0007, 0.0083,-0.7832
17-Jan-2019 10:33:41.270,-0.0086,-0.0043,-1.0229,-0.0069, 0.0039,-0.0220,-0.0105,-0.0138,-0.0118,-0.0007, 0.0083,-0.7832
17-Jan-2019 10:33:41.310,-0.0090,-0.0052,-1.0208,-0.0090, 0.0024,-0.0209,-0.0116,-0.0138,-0.0107,-0.0007, 0.0084,-0.7832
17-Jan-2019 10:33:41.349,-0.0100,-0.0055,-1.0189,-0.0107, 0.0030,-0.0182,-0.0105,-0.0117,-0.0107,-0.0007, 0.0084,-0.7832
17-Jan-2019 10:33:41.388,-0.0107,-0.0049,-1.0169,-0.0094, 0.0029,-0.0182,-0.0094,-0.0128,-0.0129,-0.0007, 0.0084,-0.7832
17-Jan-2019 10:33:41.429,-0.0098,-0.0058,-1.0146,-0.0077, 0.0037,-0.0158,-0.0115,-0.0138,-0.0129,-0.0008, 0.0083,-0.7832
17-Jan-2019 10:33:41.468,-0.0093,-0.0045,-1.0117,-0.0083, 0.0038,-0.0114,-0.0094,-0.0138,-0.0118,-0.0007, 0.0083,-0.7832
17-Jan-2019 10:33:41.509,-0.0088,-0.0042,-1.0092,-0.0069, 0.0033,-0.0078,-0.0094,-0.0138,-0.0118,-0.0008, 0.0083,-0.7832
17-Jan-2019 10:33:41.549,-0.0085,-0.0053,-1.0073,-0.0083, 0.0032,-0.0074,-0.0094,-0.0138,-0.0118,-0.0008, 0.0083,-0.7832
17-Jan-2019 10:33:41.588,-0.0088,-0.0060,-1.0053,-0.0079, 0.0038,-0.0076,-0.0115,-0.0138,-0.0129,-0.0008, 0.0083,-0.7832
17-Jan-2019 10:33:41.628,-0.0082,-0.0052,-1.0029,-0.0078, 0.0034,-0.0026,-0.0094,-0.0117,-0.0118,-0.0008, 0.0083,-0.7832
17-Jan-2019 10:33:41.668,-0.0087,-0.0052,-1.0005,-0.0088, 0.0027, 0.0002,-0.0105,-0.0149,-0.0118,-0.0008, 0.0083,-0.7832
17-Jan-2019 10:33:41.708,-0.0089,-0.0051,-0.9958,-0.0087, 0.0037, 0.0046,-0.0105,-0.0138,-0.0129,-0.0008, 0.0083,-0.7832
17-Jan-2019 10:33:41.748,-0.0091,-0.0056,-0.9908,-0.0078, 0.0028, 0.0078,-0.0094,-0.0149,-0.0118,-0.0008, 0.0083,-0.7832
17-Jan-2019 10:33:41.787,-0.0092,-0.0048,-0.9895,-0.0078, 0.0030, 0.0106,-0.0105,-0.0138,-0.0107,-0.0008, 0.0082,-0.7832
17-Jan-2019 10:33:41.826,-0.0098,-0.0034,-0.9887,-0.0089, 0.0034, 0.0116,-0.0094,-0.0149,-0.0129,-0.0008, 0.0082,-0.7832
17-Jan-2019 10:33:41.866,-0.0089,-0.0060,-0.9891,-0.0089, 0.0026, 0.0104,-0.0116,-0.0128,-0.0129,-0.0008, 0.0082,-0.7832
17-Jan-2019 10:33:41.906,-0.0083,-0.0051,-0.9886,-0.0070, 0.0031, 0.0118,-0.0116,-0.0149,-0.0097,-0.0008, 0.0082,-0.7832
17-Jan-2019 10:33:41.946,-0.0080,-0.0053,-0.9873,-0.0072, 0.0029, 0.0127,-0.0126,-0.0138,-0.0118,-0.0009, 0.0082,-0.7832
17-Jan-2019 10:33:41.985,-0.0088,-0.0048,-0.9893,-0.0083, 0.0034, 0.0111,-0.0115,-0.0149,-0.0118,-0.0009, 0.0082,-0.7832
17-Jan-2019 10:33:42.025,-0.0083,-0.0049,-0.9886,-0.0078, 0.0026, 0.0102,-0.0105,-0.0128,-0.0129,-0.0009, 0.0082,-0.7831
17-Jan-2019 10:33:42.064,-0.0079,-0.0055,-0.9897,-0.0080, 0.0035, 0.0104,-0.0105,-0.0149,-0.0118,-0.0009, 0.0082,-0.7832
17-Jan-2019 10:33:42.105,-0.0077,-0.0047,-0.9884,-0.0070, 0.0029, 0.0107,-0.0094,-0.0138,-0.0107,-0.0009, 0.0082,-0.7832
17-Jan-2019 10:33:42.143,-0.0102,-0.0048,-0.9849,-0.0088, 0.0031, 0.0132,-0.0116,-0.0128,-0.0107,-0.0009, 0.0082,-0.7832
17-Jan-2019 10:33:42.184,-0.0080,-0.0055,-0.9828,-0.0075, 0.0030, 0.0141,-0.0105,-0.0128,-0.0118,-0.0009, 0.0082,-0.7832
17-Jan-2019 10:33:42.223,-0.0091,-0.0052,-0.9848,-0.0086, 0.0035, 0.0158,-0.0116,-0.0128,-0.0118,-0.0009, 0.0081,-0.7832
17-Jan-2019 10:33:42.263,-0.0086,-0.0051,-0.9853,-0.0089, 0.0029, 0.0144,-0.0094,-0.0149,-0.0129,-0.0009, 0.0081,-0.7832
17-Jan-2019 10:33:42.303,-0.0092,-0.0049,-0.9864,-0.0071, 0.0027, 0.0146,-0.0094,-0.0117,-0.0118,-0.0010, 0.0081,-0.7832
17-Jan-2019 10:33:42.343,-0.0076,-0.0055,-0.9883,-0.0075, 0.0032, 0.0127,-0.0105,-0.0149,-0.0129,-0.0010, 0.0081,-0.7832
17-Jan-2019 10:33:42.382,-0.0089,-0.0047,-0.9899,-0.0083, 0.0041, 0.0113,-0.0116,-0.0117,-0.0118,-0.0010, 0.0081,-0.7832
17-Jan-2019 10:33:42.422,-0.0092,-0.0047,-0.9894,-0.0076, 0.0036, 0.0107,-0.0105,-0.0128,-0.0129,-0.0010, 0.0081,-0.7832
17-Jan-2019 10:33:42.461,-0.0090,-0.0051,-0.9875,-0.0076, 0.0035, 0.0119,-0.0094,-0.0138,-0.0129,-0.0010, 0.0081,-0.7832
17-Jan-2019 10:33:42.501,-0.0081,-0.0043,-0.9856,-0.0078, 0.0041, 0.0152,-0.0094,-0.0160,-0.0118,-0.0010, 0.0081,-0.7832
17-Jan-2019 10:33:42.543,-0.0096,-0.0047,-0.9854,-0.0076, 0.0031, 0.0154,-0.0094,-0.0138,-0.0118,-0.0010, 0.0081,-0.7832
17-Jan-2019 10:33:42.581,-0.0082,-0.0044,-0.9853,-0.0086, 0.0035, 0.0160,-0.0116,-0.0128,-0.0129,-0.0010, 0.0080,-0.7832
17-Jan-2019 10:33:42.621,-0.0091,-0.0048,-0.9848,-0.0079, 0.0030, 0.0169,-0.0094,-0.0138,-0.0129,-0.0010, 0.0080,-0.7832
17-Jan-2019 10:33:42.660,-0.0082,-0.0051,-0.9867,-0.0075, 0.0028, 0.0139,-0.0094,-0.0138,-0.0129,-0.0010, 0.0081,-0.7832
17-Jan-2019 10:33:42.700,-0.0084,-0.0051,-0.9892,-0.0076, 0.0028, 0.0117,-0.0094,-0.0138,-0.0118,-0.0010, 0.0081,-0.7832
17-Jan-2019 10:33:42.740,-0.0079,-0.0050,-0.9893,-0.0074, 0.0029, 0.0110,-0.0105,-0.0138,-0.0118,-0.0009, 0.0081,-0.7832
17-Jan-2019 10:33:42.780,-0.0090,-0.0043,-0.9874,-0.0077, 0.0038, 0.0112,-0.0105,-0.0138,-0.0118,-0.0009, 0.0081,-0.7832
17-Jan-2019 10:33:42.819,-0.0087,-0.0057,-0.9865,-0.0071, 0.0027, 0.0128,-0.0105,-0.0138,-0.0107,-0.0009, 0.0081,-0.7832
17-Jan-2019 10:33:42.859,-0.0084,-0.0052,-0.9860,-0.0076, 0.0019, 0.0146,-0.0105,-0.0138,-0.0118,-0.0009, 0.0081,-0.7832
17-Jan-2019 10:33:42.899,-0.0084,-0.0049,-0.9839,-0.0080, 0.0028, 0.0154,-0.0105,-0.0128,-0.0129,-0.0009, 0.0081,-0.7832
17-Jan-2019 10:33:42.939,-0.0091,-0.0045,-0.9835,-0.0082, 0.0034, 0.0161,-0.0084,-0.0138,-0.0118,-0.0010, 0.0081,-0.7832
17-Jan-2019 10:33:42.978,-0.0085,-0.0054,-0.9845,-0.0079, 0.0034, 0.0162,-0.0105,-0.0138,-0.0129,-0.0009, 0.0081,-0.7832
17-Jan-2019 10:33:43.017,-0.0090,-0.0049,-0.9885,-0.0080, 0.0032, 0.0140,-0.0083,-0.0149,-0.0129,-0.0010, 0.0081,-0.7832
17-Jan-2019 10:33:43.058,-0.0094,-0.0051,-0.9900,-0.0073, 0.0032, 0.0106,-0.0094,-0.0138,-0.0118,-0.0010, 0.0081,-0.7832
17-Jan-2019 10:33:43.097,-0.0090,-0.0039,-0.9891,-0.0075, 0.0035, 0.0107,-0.0084,-0.0117,-0.0107,-0.0010, 0.0082,-0.7832
17-Jan-2019 10:33:43.137,-0.0086,-0.0051,-0.9883,-0.0074, 0.0033, 0.0111,-0.0105,-0.0138,-0.0129,-0.0010, 0.0081,-0.7832
17-Jan-2019 10:33:43.176,-0.0078,-0.0052,-0.9853,-0.0080, 0.0024, 0.0144,-0.0094,-0.0138,-0.0129,-0.0010, 0.0081,-0.7832
17-Jan-2019 10:33:43.217,-0.0084,-0.0046,-0.9832,-0.0084, 0.0036, 0.0163,-0.0084,-0.0138,-0.0118,-0.0010, 0.0081,-0.7832
17-Jan-2019 10:33:43.256,-0.0086,-0.0047,-0.9854,-0.0078, 0.0031, 0.0154,-0.0105,-0.0128,-0.0118,-0.0010, 0.0081,-0.7832
17-Jan-2019 10:33:43.296,-0.0100,-0.0057,-0.9850,-0.0083, 0.0023, 0.0145,-0.0094,-0.0149,-0.0107,-0.0009, 0.0081,-0.7832
17-Jan-2019 10:33:43.340,-0.0084,-0.0042,-0.9867,-0.0075, 0.0039, 0.0132,-0.0094,-0.0138,-0.0129,-0.0010, 0.0081,-0.7832
17-Jan-2019 10:33:43.375,-0.0084,-0.0067,-0.9873,-0.0076, 0.0023, 0.0122,-0.0094,-0.0149,-0.0118,-0.0009, 0.0081,-0.7832
17-Jan-2019 10:33:43.415,-0.0085,-0.0050,-0.9881,-0.0077, 0.0033, 0.0132,-0.0105,-0.0160,-0.0118,-0.0010, 0.0082,-0.7832
17-Jan-2019 10:33:43.455,-0.0094,-0.0051,-0.9893,-0.0090, 0.0028, 0.0103,-0.0105,-0.0128,-0.0107,-0.0010, 0.0082,-0.7832
17-Jan-2019 10:33:43.495,-0.0081,-0.0044,-0.9887,-0.0071, 0.0037, 0.0110,-0.0084,-0.0149,-0.0118,-0.0010, 0.0082,-0.7832
17-Jan-2019 10:33:43.534,-0.0098,-0.0052,-0.9857,-0.0074, 0.0024, 0.0136,-0.0094,-0.0128,-0.0129,-0.0010, 0.0082,-0.7832
17-Jan-2019 10:33:43.574,-0.0082,-0.0054,-0.9860,-0.0084, 0.0030, 0.0154,-0.0094,-0.0138,-0.0118,-0.0010, 0.0082,-0.7832
17-Jan-2019 10:33:43.613,-0.0083,-0.0055,-0.9846,-0.0077, 0.0027, 0.0145,-0.0105,-0.0160,-0.0118,-0.0011, 0.0082,-0.7832
17-Jan-2019 10:33:43.654,-0.0100,-0.0055,-0.9845,-0.0082, 0.0030, 0.0157,-0.0105,-0.0149,-0.0129,-0.0011, 0.0082,-0.7832
17-Jan-2019 10:33:43.693,-0.0089,-0.0060,-0.9849,-0.0082, 0.0020, 0.0146,-0.0094,-0.0149,-0.0118,-0.0011, 0.0082,-0.7832
17-Jan-2019 10:33:43.733,-0.0078,-0.0040,-0.9868,-0.0082, 0.0028, 0.0134,-0.0094,-0.0128,-0.0118,-0.0011, 0.0082,-0.7832
17-Jan-2019 10:33:43.773,-0.0091,-0.0053,-0.9888,-0.0070, 0.0030, 0.0117,-0.0105,-0.0128,-0.0129,-0.0011, 0.0082,-0.7832
17-Jan-2019 10:33:43.813,-0.0094,-0.0056,-0.9894,-0.0075, 0.0026, 0.0101,-0.0094,-0.0138,-0.0118,-0.0011, 0.0081,-0.7832
17-Jan-2019 10:33:43.852,-0.0092,-0.0055,-0.9884,-0.0081, 0.0031, 0.0110,-0.0115,-0.0138,-0.0129,-0.0011, 0.0081,-0.7832
17-Jan-2019 10:33:43.891,-0.0087,-0.0042,-0.9860,-0.0080, 0.0037, 0.0139,-0.0084,-0.0149,-0.0107,-0.0011, 0.0081,-0.7832
17-Jan-2019 10:33:43.932,-0.0094,-0.0049,-0.9842,-0.0083, 0.0030, 0.0155,-0.0116,-0.0128,-0.0118,-0.0012, 0.0081,-0.7832
17-Jan-2019 10:33:43.971,-0.0084,-0.0049,-0.9852,-0.0075, 0.0032, 0.0152,-0.0105,-0.0138,-0.0118,-0.0011, 0.0081,-0.7832
17-Jan-2019 10:33:44.010,-0.0106,-0.0049,-0.9851,-0.0086, 0.0029, 0.0142,-0.0105,-0.0138,-0.0129,-0.0011, 0.0081,-0.7832
17-Jan-2019 10:33:44.050,-0.0077,-0.0051,-0.9860,-0.0074, 0.0028, 0.0142,-0.0105,-0.0138,-0.0118,-0.0011, 0.0081,-0.7832
17-Jan-2019 10:33:44.090,-0.0083,-0.0052,-0.9859,-0.0072, 0.0040, 0.0149,-0.0105,-0.0128,-0.0129,-0.0011, 0.0081,-0.7832
17-Jan-2019 10:33:44.130,-0.0103,-0.0049,-0.9878,-0.0075, 0.0025, 0.0122,-0.0105,-0.0170,-0.0118,-0.0012, 0.0081,-0.7832
17-Jan-2019 10:33:44.170,-0.0094,-0.0053,-0.9886,-0.0077, 0.0030, 0.0117,-0.0116,-0.0138,-0.0107,-0.0012, 0.0081,-0.7832
17-Jan-2019 10:33:44.210,-0.0087,-0.0054,-0.9870,-0.0076, 0.0029, 0.0121,-0.0105,-0.0138,-0.0118,-0.0012, 0.0080,-0.7832
17-Jan-2019 10:33:44.250,-0.0083,-0.0045,-0.9859,-0.0067, 0.0038, 0.0137,-0.0094,-0.0138,-0.0118,-0.0012, 0.0080,-0.7832
17-Jan-2019 10:33:44.289,-0.0084,-0.0056,-0.9858,-0.0074, 0.0023, 0.0131,-0.0094,-0.0138,-0.0107,-0.0012, 0.0080,-0.7832
17-Jan-2019 10:33:44.329,-0.0095,-0.0053,-0.9876,-0.0087, 0.0033, 0.0129,-0.0094,-0.0138,-0.0118,-0.0012, 0.0080,-0.7832
17-Jan-2019 10:33:44.368,-0.0096,-0.0055,-0.9871,-0.0079, 0.0030, 0.0130,-0.0105,-0.0128,-0.0129,-0.0012, 0.0080,-0.7832
17-Jan-2019 10:33:44.408,-0.0097,-0.0056,-0.9856,-0.0078, 0.0027, 0.0140,-0.0116,-0.0117,-0.0118,-0.0012, 0.0080,-0.7832
17-Jan-2019 10:33:44.448,-0.0077,-0.0051,-0.9848,-0.0067, 0.0037, 0.0150,-0.0105,-0.0138,-0.0118,-0.0012, 0.0080,-0.7832
17-Jan-2019 10:33:44.488,-0.0098,-0.0055,-0.9856,-0.0079, 0.0035, 0.0158,-0.0115,-0.0149,-0.0118,-0.0012, 0.0080,-0.7832
17-Jan-2019 10:33:44.528,-0.0074,-0.0028,-0.9827,-0.0065, 0.0039, 0.0169,-0.0116,-0.0128,-0.0118,-0.0012, 0.0080,-0.7832
17-Jan-2019 10:33:44.567,-0.0091,-0.0038,-0.9854,-0.0083, 0.0030, 0.0146,-0.0105,-0.0170,-0.0118,-0.0013, 0.0080,-0.7832
17-Jan-2019 10:33:44.607,-0.0101,-0.0045,-0.9843,-0.0085, 0.0030, 0.0154,-0.0094,-0.0149,-0.0129,-0.0013, 0.0080,-0.7832
17-Jan-2019 10:33:44.646,-0.0091,-0.0051,-0.9909,-0.0081, 0.0010, 0.0103,-0.0115,-0.0138,-0.0129,-0.0013, 0.0080,-0.7832
17-Jan-2019 10:33:44.686,-0.0085,-0.0059,-0.9964,-0.0060, 0.0026, 0.0053,-0.0084,-0.0138,-0.0107,-0.0013, 0.0080,-0.7832
17-Jan-2019 10:33:44.727,-0.0092,-0.0056,-0.9938,-0.0080, 0.0025, 0.0048,-0.0105,-0.0149,-0.0139,-0.0013, 0.0080,-0.7832
17-Jan-2019 10:33:44.765,-0.0088,-0.0050,-0.9879,-0.0073, 0.0035, 0.0116,-0.0105,-0.0149,-0.0139,-0.0013, 0.0080,-0.7832
17-Jan-2019 10:33:44.806,-0.0081,-0.0051,-0.9820,-0.0071, 0.0040, 0.0169,-0.0105,-0.0138,-0.0118,-0.0013, 0.0080,-0.7832
17-Jan-2019 10:33:44.845,-0.0083,-0.0046,-0.9798,-0.0079, 0.0041, 0.0209,-0.0105,-0.0128,-0.0118,-0.0013, 0.0080,-0.7832
17-Jan-2019 10:33:44.885,-0.0087,-0.0053,-0.9796,-0.0064, 0.0036, 0.0208,-0.0116,-0.0138,-0.0118,-0.0013, 0.0079,-0.7832
17-Jan-2019 10:33:44.926,-0.0090,-0.0039,-0.9814,-0.0068, 0.0038, 0.0188,-0.0094,-0.0149,-0.0118,-0.0013, 0.0080,-0.7831
17-Jan-2019 10:33:44.965,-0.0085,-0.0054,-1.0051,-0.0063, 0.0021, 0.0013,-0.0083,-0.0170,-0.0129,-0.0013, 0.0080,-0.7831
17-Jan-2019 10:33:45.004,-0.0091,-0.0058,-1.0367,-0.0083, 0.0029,-0.0288,-0.0094,-0.0149,-0.0118,-0.0014, 0.0080,-0.7831
17-Jan-2019 10:33:45.044,-0.0096,-0.0053,-1.0552,-0.0083, 0.0028,-0.0528,-0.0115,-0.0138,-0.0129,-0.0014, 0.0080,-0.7831
17-Jan-2019 10:33:45.084,-0.0081,-0.0067,-1.0484,-0.0077, 0.0027,-0.0526,-0.0105,-0.0170,-0.0129,-0.0014, 0.0081,-0.7831
17-Jan-2019 10:33:45.123,-0.0064,-0.0011,-0.9888,-0.0132, 0.0023, 0.0084,-0.0115,-0.0213,-0.0118,-0.0015, 0.0080,-0.7831
17-Jan-2019 10:33:45.163,-0.0101,-0.0055,-0.9906,-0.0130, 0.0010, 0.0136,-0.0116,-0.0138,-0.0118,-0.0014, 0.0080,-0.7831
17-Jan-2019 10:33:45.203,-0.0089,-0.0042,-0.9796,-0.0091, 0.0016, 0.0195,-0.0095,-0.0096,-0.0118,-0.0014, 0.0080,-0.7831
17-Jan-2019 10:33:45.242,-0.0098,-0.0052,-0.9855,-0.0091, 0.0011, 0.0130,-0.0094,-0.0160,-0.0118,-0.0014, 0.0080,-0.7831
17-Jan-2019 10:33:45.282,-0.0120,-0.0045,-0.9872,-0.0095, 0.0026, 0.0148,-0.0105,-0.0117,-0.0129,-0.0014, 0.0080,-0.7831
17-Jan-2019 10:33:45.322,-0.0108,-0.0054,-0.9839,-0.0065, 0.0038, 0.0147,-0.0095,-0.0106,-0.0097,-0.0014, 0.0080,-0.7831
17-Jan-2019 10:33:45.361,-0.0113,-0.0073,-0.9863,-0.0082, 0.0020, 0.0131,-0.0105,-0.0128,-0.0118,-0.0014, 0.0079,-0.7831
17-Jan-2019 10:33:45.401,-0.0111,-0.0067,-0.9856,-0.0069, 0.0014, 0.0122,-0.0105,-0.0138,-0.0118,-0.0014, 0.0079,-0.7831
17-Jan-2019 10:33:45.441,-0.0109,-0.0073,-0.9855,-0.0066, 0.0013, 0.0147,-0.0105,-0.0117,-0.0107,-0.0014, 0.0079,-0.7831
17-Jan-2019 10:33:45.481,-0.0105,-0.0059,-0.9849,-0.0070, 0.0035, 0.0132,-0.0094,-0.0117,-0.0118,-0.0014, 0.0080,-0.7831
17-Jan-2019 10:33:45.521,-0.0098,-0.0056,-0.9863,-0.0078, 0.0031, 0.0150,-0.0084,-0.0127,-0.0128,-0.0014, 0.0080,-0.7831
17-Jan-2019 10:33:45.561,-0.0103,-0.0047,-0.9858,-0.0064, 0.0039, 0.0130,-0.0105,-0.0149,-0.0118,-0.0015, 0.0080,-0.7831
17-Jan-2019 10:33:45.600,-0.0091,-0.0043,-0.9863,-0.0068, 0.0037, 0.0143,-0.0115,-0.0149,-0.0129,-0.0015, 0.0080,-0.7831
17-Jan-2019 10:33:45.639,-0.0074,-0.0068,-0.9796,-0.0047,-0.0001, 0.0089,-0.0095,-0.0096,-0.0118,-0.0015, 0.0080,-0.7831
17-Jan-2019 10:33:45.680,-0.0077,-0.0095,-0.9867,-0.0072, 0.0051, 0.0117,-0.0115,-0.0170,-0.0118,-0.0015, 0.0079,-0.7831
17-Jan-2019 10:33:45.719,-0.0091,-0.0064,-0.9858,-0.0065, 0.0075, 0.0108,-0.0116,-0.0128,-0.0129,-0.0015, 0.0079,-0.7831
17-Jan-2019 10:33:45.759,-0.0100,-0.0049,-0.9875,-0.0071, 0.0059, 0.0112,-0.0126,-0.0128,-0.0118,-0.0015, 0.0079,-0.7831
17-Jan-2019 10:33:45.799,-0.0096,-0.0030,-0.9860,-0.0063, 0.0033, 0.0135,-0.0105,-0.0117,-0.0118,-0.0015, 0.0079,-0.7831
17-Jan-2019 10:33:45.839,-0.0091,-0.0042,-0.9890,-0.0070, 0.0028, 0.0130,-0.0105,-0.0138,-0.0107,-0.0015, 0.0079,-0.7831
17-Jan-2019 10:33:45.878,-0.0077,-0.0042,-0.9879,-0.0066, 0.0011, 0.0130,-0.0094,-0.0160,-0.0118,-0.0015, 0.0079,-0.7831
17-Jan-2019 10:33:45.918,-0.0093,-0.0037,-0.9851,-0.0073, 0.0027, 0.0129,-0.0094,-0.0160,-0.0118,-0.0015, 0.0079,-0.7831
17-Jan-2019 10:33:45.958,-0.0083,-0.0031,-0.9860,-0.0073, 0.0020, 0.0131,-0.0105,-0.0138,-0.0129,-0.0015, 0.0079,-0.7831
17-Jan-2019 10:33:45.998,-0.0072,-0.0050,-0.9873,-0.0098, 0.0018, 0.0149,-0.0105,-0.0138,-0.0129,-0.0015, 0.0079,-0.7831
17-Jan-2019 10:33:46.037,-0.0039,-0.0038,-0.9919,-0.0094, 0.0007, 0.0098,-0.0136,-0.0213,-0.0140,-0.0016, 0.0079,-0.7832
17-Jan-2019 10:33:46.077,-0.0037,-0.0029,-0.9874,-0.0091, 0.0062, 0.0122,-0.0084,-0.0117,-0.0107,-0.0015, 0.0079,-0.7831
17-Jan-2019 10:33:46.116,-0.0097,-0.0042,-0.9855,-0.0082, 0.0041, 0.0117,-0.0105,-0.0128,-0.0129,-0.0016, 0.0079,-0.7832
17-Jan-2019 10:33:46.157,-0.0054,-0.0075,-0.9882,-0.0041,-0.0007, 0.0162,-0.0115,-0.0224,-0.0118,-0.0016, 0.0079,-0.7831
17-Jan-2019 10:33:46.196,-0.0097,-0.0088,-0.9886,-0.0093,-0.0021, 0.0185,-0.0105,-0.0128,-0.0118,-0.0016, 0.0079,-0.7831
17-Jan-2019 10:33:46.235,-0.0100,-0.0070,-0.9829,-0.0098, 0.0060, 0.0143,-0.0063,-0.0074,-0.0118,-0.0015, 0.0079,-0.7831
17-Jan-2019 10:33:46.275,-0.0144,-0.0017,-0.9879,-0.0122, 0.0026, 0.0139,-0.0137,-0.0149,-0.0129,-0.0016, 0.0079,-0.7831
17-Jan-2019 10:33:46.315,-0.0067,-0.0055,-0.9867,-0.0075, 0.0036, 0.0127,-0.0105,-0.0181,-0.0118,-0.0016, 0.0079,-0.7831
17-Jan-2019 10:33:46.355,-0.0126,-0.0018,-0.9863,-0.0094, 0.0060, 0.0143,-0.0094,-0.0106,-0.0118,-0.0016, 0.0079,-0.7831
17-Jan-2019 10:33:46.394,-0.0086,-0.0029,-0.9875,-0.0025, 0.0016, 0.0124,-0.0094,-0.0138,-0.0129,-0.0017, 0.0079,-0.7831
17-Jan-2019 10:33:46.435,-0.0088,-0.0057,-0.9875,-0.0042, 0.0043, 0.0118,-0.0126,-0.0181,-0.0097,-0.0017, 0.0079,-0.7831
17-Jan-2019 10:33:46.474,-0.0102,-0.0077,-0.9810,-0.0032, 0.0043, 0.0112,-0.0073,-0.0096,-0.0128,-0.0017, 0.0079,-0.7831
17-Jan-2019 10:33:46.513,-0.0113,-0.0080,-0.9909,-0.0074, 0.0086, 0.0277,-0.0146,-0.0320,-0.0108,-0.0027, 0.0076,-0.7831
17-Jan-2019 10:33:46.553,-0.0111,-0.0048,-0.9857,-0.0049, 0.0008, 0.0114,-0.0136,-0.0224,-0.0118,-0.0028, 0.0076,-0.7831
17-Jan-2019 10:33:46.593,-0.0453,-0.0312,-0.9885,-0.0590,-0.0449, 0.0147,-0.0089,-0.0079, 0.0820,-0.0029, 0.0076,-0.7812
17-Jan-2019 10:33:46.633,-0.0069,-0.0021,-0.9861, 0.0673, 0.0465, 0.0098,-0.0126,-0.0138,-0.0107,-0.0028, 0.0076,-0.7794
17-Jan-2019 10:33:46.673,-0.0102,-0.0031,-0.9882,-0.0083, 0.0034, 0.0125,-0.0115,-0.0160,-0.0118,-0.0028, 0.0076,-0.7794
17-Jan-2019 10:33:46.713,-0.0109,-0.0027,-0.9889,-0.0076, 0.0022, 0.0154,-0.0094,-0.0106,-0.0128,-0.0027, 0.0076,-0.7794
17-Jan-2019 10:33:46.753,-0.0069,-0.0038,-0.9875,-0.0060, 0.0001, 0.0132,-0.0105,-0.0160,-0.0097,-0.0027, 0.0076,-0.7794
17-Jan-2019 10:33:46.792,-0.0097,-0.0046,-0.9867,-0.0065, 0.0031, 0.0159,-0.0094,-0.0106,-0.0107,-0.0027, 0.0076,-0.7794
17-Jan-2019 10:33:46.832,-0.0080,-0.0069,-0.9848,-0.0040, 0.0031, 0.0111,-0.0137,-0.0160,-0.0118,-0.0026, 0.0076,-0.7794
17-Jan-2019 10:33:46.871,-0.0101,-0.0067,-0.9879,-0.0102, 0.0059, 0.0164,-0.0084,-0.0085,-0.0128,-0.0025, 0.0076,-0.7794
17-Jan-2019 10:33:46.911,-0.0075,-0.0070,-0.9848,-0.0083, 0.0011, 0.0085,-0.0073,-0.0074,-0.0118,-0.0024, 0.0076,-0.7794
17-Jan-2019 10:33:46.951,-0.0107,-0.0035,-0.9856,-0.0088, 0.0056, 0.0134,-0.0105,-0.0106,-0.0118,-0.0023, 0.0076,-0.7794
17-Jan-2019 10:33:46.991,-0.0082,-0.0044,-0.9889,-0.0094, 0.0004, 0.0140,-0.0115,-0.0128,-0.0139,-0.0022, 0.0076,-0.7795
17-Jan-2019 10:33:47.031,-0.0091,-0.0033,-0.9836,-0.0074, 0.0013, 0.0130,-0.0094,-0.0138,-0.0118,-0.0023, 0.0076,-0.7795
17-Jan-2019 10:33:47.070,-0.0084,-0.0049,-0.9843,-0.0066, 0.0019, 0.0108,-0.0105,-0.0096,-0.0129,-0.0024, 0.0076,-0.7795
17-Jan-2019 10:33:47.114,-0.0086,-0.0042,-0.9856,-0.0063, 0.0034, 0.0144,-0.0115,-0.0192,-0.0129,-0.0023, 0.0076,-0.7795
17-Jan-2019 10:33:47.150,-0.0110,-0.0047,-0.9855,-0.0048, 0.0006, 0.0116,-0.0105,-0.0117,-0.0129,-0.0022, 0.0076,-0.7795
17-Jan-2019 10:33:47.190,-0.0105,-0.0042,-0.9809,-0.0069, 0.0024, 0.0111,-0.0084,-0.0096,-0.0118,-0.0022, 0.0076,-0.7795
17-Jan-2019 10:33:47.229,-0.0130,-0.0051,-0.9876,-0.0070, 0.0018, 0.0110,-0.0136,-0.0192,-0.0118,-0.0023, 0.0076,-0.7795
17-Jan-2019 10:33:47.269,-0.0102,-0.0061,-0.9876,-0.0070, 0.0024, 0.0154,-0.0084,-0.0106,-0.0118,-0.0023, 0.0076,-0.7795
17-Jan-2019 10:33:47.309,-0.0094,-0.0053,-0.9873,-0.0090, 0.0053, 0.0139,-0.0084,-0.0106,-0.0118,-0.0022, 0.0077,-0.7795
17-Jan-2019 10:33:47.348,-0.0102,-0.0045,-0.9847,-0.0067, 0.0058, 0.0126,-0.0094,-0.0106,-0.0118,-0.0021, 0.0077,-0.7795
17-Jan-2019 10:33:47.388,-0.0095,-0.0070,-0.9866,-0.0047, 0.0030, 0.0122,-0.0094,-0.0149,-0.0129,-0.0021, 0.0077,-0.7795
17-Jan-2019 10:33:47.428,-0.0075,-0.0049,-0.9875,-0.0069, 0.0026, 0.0122,-0.0084,-0.0106,-0.0118,-0.0020, 0.0077,-0.7795
17-Jan-2019 10:33:47.467,-0.0102,-0.0072,-0.9888,-0.0072, 0.0036, 0.0132,-0.0084,-0.0149,-0.0118,-0.0020, 0.0078,-0.7796
17-Jan-2019 10:33:47.508,-0.0059,-0.0054,-0.9867,-0.0065, 0.0001, 0.0112,-0.0105,-0.0160,-0.0118,-0.0020, 0.0078,-0.7796
17-Jan-2019 10:33:47.548,-0.0085,-0.0046,-0.9862,-0.0104, 0.0042, 0.0172,-0.0084,-0.0117,-0.0118,-0.0020, 0.0078,-0.7796
17-Jan-2019 10:33:47.586,-0.0063,-0.0037,-0.9904,-0.0057, 0.0016, 0.0120,-0.0115,-0.0170,-0.0107,-0.0021, 0.0078,-0.7795
17-Jan-2019 10:33:47.628,-0.0076,-0.0050,-0.9848,-0.0075, 0.0029, 0.0140,-0.0094,-0.0117,-0.0118,-0.0021, 0.0078,-0.7796
17-Jan-2019 10:33:47.668,-0.0116,-0.0072,-0.9851,-0.0053, 0.0029, 0.0128,-0.0073,-0.0106,-0.0118,-0.0020, 0.0078,-0.7796
17-Jan-2019 10:33:47.707,-0.0093,-0.0051,-0.9867,-0.0090, 0.0025, 0.0135,-0.0094,-0.0138,-0.0129,-0.0020, 0.0078,-0.7796
17-Jan-2019 10:33:47.747,-0.0134,-0.0042,-0.9858,-0.0067, 0.0037, 0.0124,-0.0094,-0.0106,-0.0128,-0.0020, 0.0078,-0.7796
17-Jan-2019 10:33:47.785,-0.0120,-0.0034,-0.9867,-0.0076, 0.0019, 0.0136,-0.0105,-0.0138,-0.0118,-0.0020, 0.0078,-0.7796
17-Jan-2019 10:33:47.826,-0.0085,-0.0075,-0.9844,-0.0076, 0.0012, 0.0121,-0.0084,-0.0149,-0.0118,-0.0020, 0.0078,-0.7796
17-Jan-2019 10:33:47.865,-0.0066,-0.0089,-0.9891,-0.0085, 0.0007, 0.0146,-0.0094,-0.0128,-0.0118,-0.0020, 0.0078,-0.7796
17-Jan-2019 10:33:47.905,-0.0093,-0.0047,-0.9864,-0.0069, 0.0029, 0.0143,-0.0105,-0.0138,-0.0107,-0.0020, 0.0079,-0.7796
17-Jan-2019 10:33:47.945,-0.0087,-0.0066,-0.9858,-0.0071, 0.0024, 0.0137,-0.0084,-0.0106,-0.0128,-0.0020, 0.0079,-0.7796
17-Jan-2019 10:33:47.984,-0.0099,-0.0039,-0.9866,-0.0105, 0.0034, 0.0151,-0.0094,-0.0128,-0.0097,-0.0020, 0.0079,-0.7796
17-Jan-2019 10:33:48.024,-0.0072,-0.0057,-0.9857,-0.0073, 0.0016, 0.0144,-0.0094,-0.0149,-0.0129,-0.0020, 0.0079,-0.7796
17-Jan-2019 10:33:48.063,-0.0077,-0.0042,-0.9876,-0.0075, 0.0037, 0.0135,-0.0094,-0.0149,-0.0118,-0.0020, 0.0079,-0.7796
17-Jan-2019 10:33:48.104,-0.0090,-0.0059,-0.9875,-0.0068, 0.0034, 0.0127,-0.0094,-0.0149,-0.0139,-0.0021, 0.0079,-0.7796
17-Jan-2019 10:33:48.143,-0.0106,-0.0029,-0.9860,-0.0051, 0.0019, 0.0130,-0.0094,-0.0128,-0.0118,-0.0021, 0.0079,-0.7797
17-Jan-2019 10:33:48.182,-0.0101,-0.0043,-0.9809,-0.0065, 0.0033, 0.0148, 0.0031, 0.0171,-0.0127,-0.0016, 0.0080,-0.7797
17-Jan-2019 10:33:48.222,-0.0144,-0.0036,-0.9700,-0.0040, 0.0026, 0.0063,-0.0032, 0.0128,-0.0117,-0.0020, 0.0078,-0.7797
17-Jan-2019 10:33:48.262,-0.0070,-0.0066,-0.9950,-0.0102, 0.0049, 0.0244,-0.0168,-0.0320,-0.0108,-0.0021, 0.0078,-0.7796
17-Jan-2019 10:33:48.302,-0.0113,-0.0052,-0.9803,-0.0056, 0.0027, 0.0079,-0.0074,-0.0032,-0.0107,-0.0022, 0.0078,-0.7796
17-Jan-2019 10:33:48.341,-0.0099,-0.0048,-0.9874,-0.0072, 0.0026, 0.0133,-0.0105,-0.0170,-0.0118,-0.0023, 0.0078,-0.7797
17-Jan-2019 10:33:48.381,-0.0102,-0.0049,-0.9886,-0.0053, 0.0037, 0.0148,-0.0115,-0.0192,-0.0107,-0.0024, 0.0078,-0.7796
17-Jan-2019 10:33:48.421,-0.0099,-0.0054,-0.9863,-0.0064, 0.0021, 0.0120,-0.0105,-0.0128,-0.0118,-0.0024, 0.0077,-0.7796
17-Jan-2019 10:33:48.460,-0.0101,-0.0043,-0.9853,-0.0077, 0.0019, 0.0141,-0.0105,-0.0138,-0.0118,-0.0024, 0.0077,-0.7797
17-Jan-2019 10:33:48.500,-0.0077,-0.0043,-0.9861,-0.0071, 0.0020, 0.0123,-0.0105,-0.0128,-0.0107,-0.0024, 0.0077,-0.7797
17-Jan-2019 10:33:48.539,-0.0085,-0.0057,-0.9929,-0.0076, 0.0033, 0.0168,-0.0136,-0.0287,-0.0118,-0.0025, 0.0077,-0.7797
17-Jan-2019 10:33:48.579,-0.0106,-0.0022,-0.9804,-0.0050, 0.0038, 0.0085,-0.0126,-0.0202,-0.0118,-0.0026, 0.0076,-0.7796
17-Jan-2019 10:33:48.619,-0.0090,-0.0042,-0.9870,-0.0060, 0.0025, 0.0133,-0.0084,-0.0106,-0.0128,-0.0026, 0.0076,-0.7796
17-Jan-2019 10:33:48.660,-0.0097,-0.0045,-0.9866,-0.0087, 0.0037, 0.0165,-0.0011, 0.0139,-0.0128,-0.0021, 0.0078,-0.7796
