Timestamp,accelX(g),accelY(g),accelZ(g),accelUserX(g),accelUserY(g),accelUserZ(g),gyroX(rad/s),gyroY(rad/s),gyroZ(rad/s),Roll(rads),Pitch(rads),Yaw(rads)
17-Jan-2019 10:26:55.972,-0.0066,-0.0024,-0.9868,-0.0040, 0.0004, 0.0169,-0.0105,-0.0138,-0.0118,-0.0014, 0.0018, 2.4907
17-Jan-2019 10:26:55.977,-0.0066,-0.0024,-0.9868,-0.0037, 0.0002, 0.0131,-0.0115,-0.0149,-0.0139,-0.0014, 0.0018, 2.4907
17-Jan-2019 10:26:55.979,-0.0052,-0.0031,-0.9869,-0.0037, 0.0002, 0.0131,-0.0115,-0.0149,-0.0139,-0.0014, 0.0018, 2.4907
17-Jan-2019 10:26:56.018,-0.0081, 0.0012,-0.9854,-0.0052,-0.0003, 0.0131,-0.0105,-0.0138,-0.0107,-0.0014, 0.0017, 2.4907
17-Jan-2019 10:26:56.058,-0.0058, 0.0018,-0.9861,-0.0049, 0.0037, 0.0142,-0.0105,-0.0149,-0.0107,-0.0014, 0.0017, 2.4907
17-Jan-2019 10:26:56.098,-0.0053,-0.0028,-0.9854,-0.0053,-0.0002, 0.0115,-0.0105,-0.0149,-0.0107,-0.0015, 0.0018, 2.4907
17-Jan-2019 10:26:56.138,-0.0023, 0.0061,-0.9861,-0.0073,-0.0026, 0.0164,-0.0104,-0.0191,-0.0129,-0.0015, 0.0018, 2.4907
17-Jan-2019 10:26:56.178, 0.0081, 0.0018,-0.9874, 0.0004,-0.0133, 0.0086,-0.0105,-0.0138,-0.0107,-0.0016, 0.0018, 2.4906
17-Jan-2019 10:26:56.217,-0.0032,-0.0079,-0.9893,-0.0088,-0.0061, 0.0125,-0.0094,-0.0138,-0.0118,-0.0016, 0.0018, 2.4906
17-Jan-2019 10:26:56.257, 0.0003,-0.0094,-0.9883,-0.0036, 0.0019, 0.0132,-0.0094,-0.0149,-0.0107,-0.0016, 0.0018, 2.4907
17-Jan-2019 10:26:56.297,-0.0035,-0.0050,-0.9867,-0.0069, 0.0011, 0.0155,-0.0094,-0.0170,-0.0129,-0.0016, 0.0018, 2.4906
17-Jan-2019 10:26:56.337,-0.0071, 0.0020,-0.9878,-0.0044, 0.0053, 0.0141,-0.0105,-0.0138,-0.0118,-0.0016, 0.0018, 2.4906
17-Jan-2019 10:26:56.376,-0.0117,-0.0006,-0.9845,-0.0060, 0.0039, 0.0128,-0.0105,-0.0128,-0.0107,-0.0016, 0.0018, 2.4906
17-Jan-2019 10:26:56.416,-0.0085,-0.0010,-0.9877,-0.0011, 0.0005, 0.0116,-0.0105,-0.0149,-0.0107,-0.0016, 0.0018, 2.4906
17-Jan-2019 10:26:56.456,-0.0100,-0.0014,-0.9882,-0.0073,-0.0028, 0.0151,-0.0094,-0.0149,-0.0129,-0.0017, 0.0018, 2.4906
17-Jan-2019 10:26:56.496,-0.0091,-0.0020,-0.9885,-0.0015,-0.0008, 0.0136,-0.0094,-0.0138,-0.0118,-0.0017, 0.0019, 2.4906
17-Jan-2019 10:26:56.536,-0.0066,-0.0047,-0.9842,-0.0025, 0.0009, 0.0140,-0.0105,-0.0138,-0.0107,-0.0017, 0.0019, 2.4906
17-Jan-2019 10:26:56.575,-0.0077,-0.0045,-0.9859,-0.0055,-0.0010, 0.0145,-0.0105,-0.0138,-0.0129,-0.0017, 0.0019, 2.4906
17-Jan-2019 10:26:56.615,-0.0042,-0.0044,-0.9876,-0.0007,-0.0016, 0.0144,-0.0094,-0.0149,-0.0118,-0.0018, 0.0019, 2.4906
17-Jan-2019 10:26:56.654,-0.0038,-0.0039,-0.9856,-0.0040, 0.0024, 0.0155,-0.0094,-0.0149,-0.0107,-0.0018, 0.0019, 2.4906
17-Jan-2019 10:26:56.694,-0.0060,-0.0008,-0.9842,-0.0037, 0.0030, 0.0147,-0.0115,-0.0149,-0.0118,-0.0018, 0.0019, 2.4906
17-Jan-2019 10:26:56.734,-0.0056,-0.0019,-0.9869,-0.0018, 0.0012, 0.0129,-0.0105,-0.0149,-0.0129,-0.0018, 0.0019, 2.4906
17-Jan-2019 10:26:56.774,-0.0035,-0.0003,-0.9862,-0.0025,-0.0001, 0.0138,-0.0115,-0.0149,-0.0107,-0.0019, 0.0019, 2.4906
17-Jan-2019 10:26:56.814,-0.0079, 0.0000,-0.9868,-0.0044,-0.0013, 0.0119,-0.0105,-0.0128,-0.0118,-0.0019, 0.0019, 2.4906
17-Jan-2019 10:26:56.853,-0.0040,-0.0040,-0.9862,-0.0005,-0.0019, 0.0144,-0.0105,-0.0149,-0.0129,-0.0019, 0.0019, 2.4906
17-Jan-2019 10:26:56.893,-0.0037,-0.0046,-0.9871,-0.0046,-0.0001, 0.0144,-0.0094,-0.0138,-0.0129,-0.0019, 0.0019, 2.4906
17-Jan-2019 10:26:56.933,-0.0069,-0.0028,-0.9856,-0.0031, 0.0011, 0.0142,-0.0084,-0.0149,-0.0118,-0.0019, 0.0019, 2.4906
17-Jan-2019 10:26:56.975,-0.0045,-0.0021,-0.9854,-0.0035,-0.0012, 0.0150,-0.0105,-0.0149,-0.0107,-0.0019, 0.0019, 2.4906
17-Jan-2019 10:26:57.012,-0.0069,-0.0011,-0.9851,-0.0040, 0.0007, 0.0148,-0.0084,-0.0149,-0.0118,-0.0019, 0.0019, 2.4906
17-Jan-2019 10:26:57.052,-0.0055,-0.0020,-0.9867,-0.0031,-0.0004, 0.0132,-0.0105,-0.0149,-0.0118,-0.0019, 0.0019, 2.4906
17-Jan-2019 10:26:57.092,-0.0052,-0.0031,-0.9859,-0.0028,-0.0002, 0.0136,-0.0094,-0.0128,-0.0118,-0.0019, 0.0020, 2.4906
17-Jan-2019 10:26:57.131,-0.0042,-0.0014,-0.9858,-0.0035, 0.0020, 0.0133,-0.0105,-0.0149,-0.0107,-0.0019, 0.0020, 2.4906
17-Jan-2019 10:26:57.172,-0.0074,-0.0013,-0.9873,-0.0065,-0.0012, 0.0130,-0.0105,-0.0138,-0.0129,-0.0019, 0.0020, 2.4905
17-Jan-2019 10:26:57.211,-0.0013,-0.0013,-0.9854,-0.0036,-0.0035, 0.0137,-0.0105,-0.0149,-0.0118,-0.0019, 0.0020, 2.4905
17-Jan-2019 10:26:57.251,-0.0054,-0.0019,-0.9844,-0.0071,-0.0018, 0.0148,-0.0115,-0.0160,-0.0129,-0.0019, 0.0020, 2.4905
17-Jan-2019 10:26:57.291,-0.0049,-0.0015,-0.9866,-0.0023,-0.0015, 0.0138,-0.0105,-0.0149,-0.0118,-0.0019, 0.0020, 2.4905
17-Jan-2019 10:26:57.330,-0.0044,-0.0027,-0.9853,-0.0050,-0.0000, 0.0127,-0.0094,-0.0170,-0.0107,-0.0019, 0.0020, 2.4905
17-Jan-2019 10:26:57.370,-0.0063,-0.0012,-0.9853,-0.0038,-0.0014, 0.0143,-0.0084,-0.0138,-0.0118,-0.0020, 0.0020, 2.4905
17-Jan-2019 10:26:57.410,-0.0081,-0.0030,-0.9875,-0.0042, 0.0013, 0.0132,-0.0105,-0.0128,-0.0129,-0.0019, 0.0020, 2.4905
17-Jan-2019 10:26:57.449,-0.0066,-0.0041,-0.9852,-0.0036,-0.0015, 0.0106,-0.0115,-0.0170,-0.0118,-0.0020, 0.0021, 2.4905
17-Jan-2019 10:26:57.489,-0.0067,-0.0024,-0.9860,-0.0050,-0.0001, 0.0145,-0.0073,-0.0138,-0.0118,-0.0020, 0.0021, 2.4905
17-Jan-2019 10:26:57.529,-0.0075,-0.0030,-0.9867,-0.0019, 0.0007, 0.0130,-0.0105,-0.0138,-0.0118,-0.0020, 0.0021, 2.4905
17-Jan-2019 10:26:57.569,-0.0060,-0.0033,-0.9848,-0.0022,-0.0006, 0.0141,-0.0073,-0.0159,-0.0118,-0.0020, 0.0021, 2.4905
17-Jan-2019 10:26:57.608,-0.0078,-0.0032,-0.9863,-0.0037,-0.0001, 0.0137,-0.0094,-0.0128,-0.0118,-0.0020, 0.0021, 2.4905
17-Jan-2019 10:26:57.648,-0.0057,-0.0025,-0.9866,-0.0029, 0.0004, 0.0163,-0.0073,-0.0117,-0.0128,-0.0020, 0.0021, 2.4905
17-Jan-2019 10:26:57.688,-0.0055,-0.0023,-0.9855,-0.0061, 0.0009, 0.0134,-0.0105,-0.0128,-0.0129,-0.0020, 0.0021, 2.4905
17-Jan-2019 10:26:57.727,-0.0056,-0.0013,-0.9854,-0.0033, 0.0008, 0.0138,-0.0105,-0.0149,-0.0118,-0.0020, 0.0021, 2.4905
17-Jan-2019 10:26:57.767,-0.0042,-0.0010,-0.9864,-0.0021, 0.0014, 0.0133,-0.0105,-0.0149,-0.0118,-0.0020, 0.0021, 2.4905
17-Jan-2019 10:26:57.807,-0.0042,-0.0023,-0.9859,-0.0025,-0.0003, 0.0133,-0.0105,-0.0138,-0.0118,-0.0020, 0.0021, 2.4905
17-Jan-2019 10:26:57.847,-0.0063,-0.0014,-0.9857,-0.0021, 0.0001, 0.0138,-0.0094,-0.0149,-0.0118,-0.0020, 0.0021, 2.4905
17-Jan-2019 10:26:57.887,-0.0060,-0.0021,-0.9867,-0.0021, 0.0005, 0.0142,-0.0094,-0.0128,-0.0129,-0.0020, 0.0021, 2.4905
17-Jan-2019 10:26:57.926,-0.0051,-0.0025,-0.9860,-0.0026, 0.0012, 0.0131,-0.0094,-0.0149,-0.0118,-0.0020, 0.0021, 2.4905
17-Jan-2019 10:26:57.970,-0.0069,-0.0013,-0.9864,-0.0041, 0.0003, 0.0134,-0.0105,-0.0149,-0.0129,-0.0020, 0.0021, 2.4905
17-Jan-2019 10:26:58.007,-0.0046,-0.0014,-0.9862,-0.0036, 0.0004, 0.0135,-0.0115,-0.0149,-0.0107,-0.0020, 0.0021, 2.4905
17-Jan-2019 10:26:58.046,-0.0068,-0.0017,-0.9863,-0.0056, 0.0004, 0.0128,-0.0116,-0.0138,-0.0097,-0.0020, 0.0021, 2.4905
17-Jan-2019 10:26:58.086,-0.0065,-0.0022,-0.9862,-0.0037,-0.0013, 0.0140,-0.0105,-0.0149,-0.0129,-0.0021, 0.0021, 2.4906
17-Jan-2019 10:26:58.125,-0.0041,-0.0023,-0.9832,-0.0036,-0.0009, 0.0099,-0.0062,-0.0127,-0.0118,-0.0021, 0.0020, 2.4906
17-Jan-2019 10:26:58.165,-0.0043,-0.0020,-0.9852,-0.0042, 0.0006, 0.0100,-0.0105,-0.0149,-0.0118,-0.0021, 0.0021, 2.4906
17-Jan-2019 10:26:58.204,-0.0061,-0.0007,-0.9872,-0.0034,-0.0010, 0.0145,-0.0105,-0.0138,-0.0129,-0.0022, 0.0020, 2.4906
17-Jan-2019 10:26:58.244,-0.0049,-0.0006,-0.9864,-0.0029,-0.0000, 0.0145,-0.0094,-0.0149,-0.0129,-0.0021, 0.0020, 2.4906
17-Jan-2019 10:26:58.284,-0.0056,-0.0018,-0.9862,-0.0044, 0.0014, 0.0153,-0.0105,-0.0149,-0.0129,-0.0021, 0.0020, 2.4906
17-Jan-2019 10:26:58.324,-0.0058,-0.0017,-0.9866,-0.0024, 0.0005, 0.0142,-0.0115,-0.0149,-0.0107,-0.0021, 0.0020, 2.4906
17-Jan-2019 10:26:58.363,-0.0045,-0.0030,-0.9868,-0.0029, 0.0004, 0.0136,-0.0105,-0.0149,-0.0118,-0.0021, 0.0020, 2.4906
17-Jan-2019 10:26:58.403,-0.0078,-0.0025,-0.9871,-0.0049,-0.0003, 0.0139,-0.0094,-0.0128,-0.0129,-0.0021, 0.0019, 2.4905
17-Jan-2019 10:26:58.442,-0.0064,-0.0025,-0.9851,-0.0030,-0.0006, 0.0138,-0.0105,-0.0149,-0.0107,-0.0022, 0.0020, 2.4906
17-Jan-2019 10:26:58.482,-0.0056,-0.0036,-0.9860,-0.0036, 0.0007, 0.0130,-0.0105,-0.0170,-0.0107,-0.0022, 0.0020, 2.4906
17-Jan-2019 10:26:58.522,-0.0058,-0.0012,-0.9869,-0.0051, 0.0014, 0.0137,-0.0094,-0.0149,-0.0129,-0.0022, 0.0020, 2.4906
17-Jan-2019 10:26:58.561,-0.0066,-0.0017,-0.9858,-0.0039,-0.0003, 0.0136,-0.0105,-0.0128,-0.0118,-0.0022, 0.0020, 2.4906
17-Jan-2019 10:26:58.601,-0.0057,-0.0019,-0.9855,-0.0033,-0.0004, 0.0123,-0.0094,-0.0160,-0.0107,-0.0022, 0.0020, 2.4905
17-Jan-2019 10:26:58.641,-0.0060,-0.0016,-0.9860,-0.0045, 0.0003, 0.0151,-0.0084,-0.0128,-0.0118,-0.0022, 0.0020, 2.4906
17-Jan-2019 10:26:58.681,-0.0061,-0.0018,-0.9858,-0.0028,-0.0006, 0.0130,-0.0115,-0.0149,-0.0139,-0.0023, 0.0020, 2.4906
17-Jan-2019 10:26:58.720,-0.0058,-0.0013,-0.9860,-0.0031,-0.0008, 0.0130,-0.0105,-0.0160,-0.0118,-0.0023, 0.0020, 2.4905
17-Jan-2019 10:26:58.760,-0.0058,-0.0026,-0.9882,-0.0033,-0.0007, 0.0142,-0.0105,-0.0138,-0.0118,-0.0023, 0.0020, 2.4905
17-Jan-2019 10:26:58.800,-0.0059,-0.0018,-0.9862,-0.0036,-0.0004, 0.0134,-0.0105,-0.0138,-0.0118,-0.0023, 0.0020, 2.4905
17-Jan-2019 10:26:58.840,-0.0052,-0.0019,-0.9853,-0.0035, 0.0006, 0.0120,-0.0105,-0.0138,-0.0107,-0.0023, 0.0020, 2.4906
17-Jan-2019 10:26:58.879,-0.0064,-0.0032,-0.9877,-0.0029,-0.0005, 0.0135,-0.0094,-0.0149,-0.0129,-0.0023, 0.0020, 2.4906
17-Jan-2019 10:26:58.919,-0.0061,-0.0016,-0.9861,-0.0030, 0.0002, 0.0143,-0.0105,-0.0128,-0.0118,-0.0023, 0.0020, 2.4906
17-Jan-2019 10:26:58.959,-0.0050,-0.0021,-0.9852,-0.0028, 0.0002, 0.0131,-0.0115,-0.0149,-0.0118,-0.0023, 0.0020, 2.4906
17-Jan-2019 10:26:58.999,-0.0050,-0.0016,-0.9880,-0.0029,-0.0010, 0.0126,-0.0105,-0.0149,-0.0139,-0.0023, 0.0020, 2.4906
17-Jan-2019 10:26:59.038,-0.0055,-0.0007,-0.9901,-0.0029,-0.0002, 0.0053,-0.0105,-0.0149,-0.0107,-0.0023, 0.0020, 2.4906
17-Jan-2019 10:26:59.078,-0.0069,-0.0024,-1.0351,-0.0024, 0.0014,-0.0067,-0.0137,-0.0138,-0.0118,-0.0023, 0.0019, 2.4906
17-Jan-2019 10:26:59.118,-0.0057, 0.0004,-1.0878,-0.0034, 0.0020,-0.0622,-0.0116,-0.0085,-0.0129,-0.0023, 0.0018, 2.4906
17-Jan-2019 10:26:59.158,-0.0061,-0.0011,-1.0961,-0.0055, 0.0026,-0.0934,-0.0094,-0.0138,-0.0118,-0.0023, 0.0018, 2.4905
17-Jan-2019 10:26:59.198,-0.0045, 0.0016,-1.1049,-0.0054, 0.0028,-0.1073,-0.0115,-0.0160,-0.0118,-0.0023, 0.0018, 2.4905
17-Jan-2019 10:26:59.237,-0.0051,-0.0010,-1.1079,-0.0049, 0.0009,-0.1039,-0.0073,-0.0127,-0.0118,-0.0023, 0.0018, 2.4905
17-Jan-2019 10:26:59.277,-0.0051,-0.0016,-1.1000,-0.0030,-0.0023,-0.0989,-0.0094,-0.0128,-0.0118,-0.0023, 0.0018, 2.4905
17-Jan-2019 10:26:59.317,-0.0064,-0.0002,-1.0848,-0.0031,-0.0005,-0.1019,-0.0115,-0.0160,-0.0118,-0.0023, 0.0018, 2.4905
17-Jan-2019 10:26:59.356,-0.0042,-0.0003,-1.0948,-0.0076,-0.0012,-0.0939,-0.0115,-0.0149,-0.0118,-0.0023, 0.0018, 2.4906
17-Jan-2019 10:26:59.396,-0.0043,-0.0013,-1.1015,-0.0045,-0.0012,-0.0930,-0.0105,-0.0117,-0.0097,-0.0023, 0.0018, 2.4906
17-Jan-2019 10:26:59.436,-0.0072,-0.0027,-1.1008,-0.0038,-0.0025,-0.1074,-0.0094,-0.0128,-0.0129,-0.0023, 0.0017, 2.4906
17-Jan-2019 10:26:59.476,-0.0088,-0.0045,-1.1088,-0.0042,-0.0005,-0.1166,-0.0105,-0.0170,-0.0118,-0.0023, 0.0017, 2.4906
17-Jan-2019 10:26:59.516,-0.0036, 0.0012,-1.1196,-0.0023, 0.0009,-0.1131,-0.0094,-0.0138,-0.0139,-0.0023, 0.0017, 2.4906
17-Jan-2019 10:26:59.555,-0.0074,-0.0019,-1.1232,-0.0059, 0.0012,-0.1149,-0.0105,-0.0117,-0.0118,-0.0023, 0.0017, 2.4906
17-Jan-2019 10:26:59.595,-0.0044,-0.0013,-1.1170,-0.0025, 0.0007,-0.1256,-0.0115,-0.0160,-0.0118,-0.0023, 0.0017, 2.4906
17-Jan-2019 10:26:59.635,-0.0064,-0.0028,-1.1126,-0.0018, 0.0029,-0.1278,-0.0094,-0.0181,-0.0118,-0.0023, 0.0017, 2.4906
17-Jan-2019 10:26:59.674,-0.0064,-0.0022,-1.1118,-0.0038,-0.0001,-0.1076,-0.0084,-0.0128,-0.0118,-0.0023, 0.0017, 2.4906
17-Jan-2019 10:26:59.714,-0.0062, 0.0001,-1.0871,-0.0050,-0.0004,-0.0840,-0.0073,-0.0127,-0.0118,-0.0023, 0.0017, 2.4906
17-Jan-2019 10:26:59.758,-0.0045,-0.0035,-1.0462,-0.0021,-0.0017,-0.0462,-0.0094,-0.0149,-0.0107,-0.0024, 0.0017, 2.4906
17-Jan-2019 10:26:59.793,-0.0049,-0.0023,-1.0123,-0.0050, 0.0018,-0.0333,-0.0073,-0.0181,-0.0129,-0.0024, 0.0018, 2.4906
17-Jan-2019 10:26:59.833,-0.0041,-0.0034,-0.9887,-0.0038, 0.0003, 0.0061,-0.0073,-0.0149,-0.0139,-0.0024, 0.0018, 2.4906
17-Jan-2019 10:26:59.874,-0.0051, 0.0010,-0.9715,-0.0047, 0.0002, 0.0322,-0.0073,-0.0085,-0.0118,-0.0024, 0.0018, 2.4906
17-Jan-2019 10:26:59.913,-0.0063,-0.0022,-1.0010,-0.0057, 0.0003,-0.0256,-0.0137,-0.0138,-0.0118,-0.0024, 0.0018, 2.4906
17-Jan-2019 10:26:59.952,-0.0055,-0.0027,-1.0265,-0.0001,-0.0028,-0.0168,-0.0126,-0.0181,-0.0107,-0.0024, 0.0017, 2.4906
17-Jan-2019 10:26:59.992,-0.0028,-0.0020,-1.0261,-0.0017,-0.0000,-0.0318,-0.0084,-0.0128,-0.0107,-0.0024, 0.0017, 2.4906
17-Jan-2019 10:27:00.032,-0.0076, 0.0001,-1.0114,-0.0048,-0.0002, 0.0014,-0.0105,-0.0106,-0.0118,-0.0024, 0.0017, 2.4906
17-Jan-2019 10:27:00.071,-0.0059,-0.0022,-0.9771,-0.0034, 0.0003, 0.0058,-0.0115,-0.0149,-0.0129,-0.0024, 0.0017, 2.4906
17-Jan-2019 10:27:00.111,-0.0066,-0.0012,-0.9631,-0.0017, 0.0010, 0.0248,-0.0115,-0.0170,-0.0107,-0.0024, 0.0017, 2.4906
17-Jan-2019 10:27:00.151,-0.0018,-0.0028,-0.9637,-0.0020, 0.0011, 0.0451,-0.0084,-0.0117,-0.0107,-0.0024, 0.0017, 2.4906
17-Jan-2019 10:27:00.191,-0.0055, 0.0024,-0.9656,-0.0023, 0.0024, 0.0418,-0.0073,-0.0085,-0.0118,-0.0024, 0.0017, 2.4906
17-Jan-2019 10:27:00.230,-0.0025,-0.0037,-0.9712,-0.0020,-0.0015, 0.0231,-0.0115,-0.0149,-0.0129,-0.0024, 0.0017, 2.4906
17-Jan-2019 10:27:00.270,-0.0042, 0.0016,-0.9908,-0.0045, 0.0029, 0.0081,-0.0105,-0.0181,-0.0118,-0.0024, 0.0017, 2.4906
17-Jan-2019 10:27:00.310,-0.0036,-0.0045,-1.0079,-0.0050,-0.0019, 0.0036,-0.0126,-0.0149,-0.0118,-0.0024, 0.0017, 2.4906
17-Jan-2019 10:27:00.350,-0.0049,-0.0001,-1.0055,-0.0026, 0.0001,-0.0046,-0.0095,-0.0074,-0.0118,-0.0023, 0.0017, 2.4906
17-Jan-2019 10:27:00.389,-0.0074,-0.0022,-0.9934,-0.0054, 0.0011,-0.0090,-0.0084,-0.0128,-0.0107,-0.0023, 0.0017, 2.4906
17-Jan-2019 10:27:00.429,-0.0046,-0.0027,-0.9924,-0.0026, 0.0002, 0.0043,-0.0105,-0.0192,-0.0107,-0.0023, 0.0017, 2.4906
17-Jan-2019 10:27:00.469,-0.0072,-0.0016,-0.9868,-0.0036, 0.0003, 0.0235,-0.0084,-0.0106,-0.0118,-0.0023, 0.0018, 2.4906
17-Jan-2019 10:27:00.508,-0.0034,-0.0033,-0.9710,-0.0016,-0.0005, 0.0294,-0.0105,-0.0096,-0.0118,-0.0023, 0.0018, 2.4906
17-Jan-2019 10:27:00.548,-0.0059,-0.0023,-0.9678,-0.0034,-0.0008, 0.0216,-0.0115,-0.0213,-0.0118,-0.0023, 0.0018, 2.4906
17-Jan-2019 10:27:00.588,-0.0034,-0.0027,-0.9824,-0.0039, 0.0020, 0.0271,-0.0105,-0.0149,-0.0107,-0.0023, 0.0018, 2.4906
17-Jan-2019 10:27:00.628,-0.0069,-0.0018,-0.9898,-0.0038,-0.0031, 0.0231,-0.0094,-0.0128,-0.0118,-0.0023, 0.0018, 2.4906
17-Jan-2019 10:27:00.668,-0.0054,-0.0012,-0.9894,-0.0027,-0.0005, 0.0088,-0.0116,-0.0117,-0.0129,-0.0022, 0.0018, 2.4906
17-Jan-2019 10:27:00.707,-0.0053,-0.0025,-0.9915,-0.0026, 0.0008,-0.0020,-0.0115,-0.0160,-0.0118,-0.0023, 0.0018, 2.4906
17-Jan-2019 10:27:00.747,-0.0023,-0.0025,-0.9987,-0.0015, 0.0008, 0.0057,-0.0094,-0.0170,-0.0107,-0.0023, 0.0017, 2.4906
17-Jan-2019 10:27:00.787,-0.0058,-0.0017,-0.9953,-0.0044,-0.0005, 0.0131,-0.0116,-0.0128,-0.0107,-0.0023, 0.0018, 2.4906
17-Jan-2019 10:27:00.827,-0.0032,-0.0002,-0.9794,-0.0022, 0.0000, 0.0116,-0.0115,-0.0160,-0.0118,-0.0023, 0.0018, 2.4906
17-Jan-2019 10:27:00.866,-0.0061,-0.0039,-0.9779,-0.0027,-0.0006, 0.0172,-0.0126,-0.0192,-0.0108,-0.0023, 0.0018, 2.4906
17-Jan-2019 10:27:00.906,-0.0050,-0.0020,-0.9815,-0.0042, 0.0005, 0.0236,-0.0094,-0.0128,-0.0107,-0.0023, 0.0018, 2.4906
17-Jan-2019 10:27:00.946,-0.0051,-0.0036,-0.9807,-0.0042,-0.0027, 0.0237,-0.0084,-0.0074,-0.0128,-0.0023, 0.0018, 2.4906
17-Jan-2019 10:27:00.985,-0.0062,-0.0009,-0.9759,-0.0020,-0.0004, 0.0142,-0.0105,-0.0149,-0.0118,-0.0023, 0.0017, 2.4906
17-Jan-2019 10:27:01.025,-0.0062,-0.0046,-0.9890,-0.0029,-0.0018, 0.0109,-0.0083,-0.0159,-0.0129,-0.0023, 0.0018, 2.4906
17-Jan-2019 10:27:01.065,-0.0042,-0.0022,-0.9990,-0.0014, 0.0004, 0.0169,-0.0094,-0.0106,-0.0128,-0.0023, 0.0018, 2.4906
17-Jan-2019 10:27:01.105,-0.0048,-0.0033,-0.9929,-0.0041,-0.0014, 0.0088,-0.0105,-0.0128,-0.0107,-0.0023, 0.0018, 2.4906
17-Jan-2019 10:27:01.144,-0.0056,-0.0007,-0.9832,-0.0036, 0.0002, 0.0027,-0.0094,-0.0170,-0.0107,-0.0022, 0.0018, 2.4906
17-Jan-2019 10:27:01.184,-0.0050,-0.0030,-0.9879,-0.0032,-0.0013, 0.0170,-0.0084,-0.0128,-0.0107,-0.0023, 0.0018, 2.4906
17-Jan-2019 10:27:01.224,-0.0052,-0.0035,-0.9892,-0.0041, 0.0001, 0.0258,-0.0095,-0.0085,-0.0107,-0.0023, 0.0018, 2.4906
17-Jan-2019 10:27:01.264,-0.0049,-0.0019,-0.9766,-0.0018, 0.0001, 0.0188,-0.0094,-0.0117,-0.0129,-0.0023, 0.0018, 2.4906
17-Jan-2019 10:27:01.303,-0.0057,-0.0028,-0.9766,-0.0024,-0.0010, 0.0123,-0.0126,-0.0181,-0.0129,-0.0023, 0.0018, 2.4906
17-Jan-2019 10:27:01.343,-0.0045,-0.0017,-0.9877,-0.0026, 0.0002, 0.0190,-0.0115,-0.0170,-0.0118,-0.0023, 0.0018, 2.4906
17-Jan-2019 10:27:01.383,-0.0048,-0.0029,-0.9900,-0.0034,-0.0010, 0.0187,-0.0084,-0.0106,-0.0118,-0.0023, 0.0018, 2.4906
17-Jan-2019 10:27:01.422,-0.0053,-0.0005,-0.9842,-0.0035,-0.0007, 0.0082,-0.0115,-0.0160,-0.0118,-0.0023, 0.0018, 2.4906
17-Jan-2019 10:27:01.462,-0.0047,-0.0033,-0.9886,-0.0021,-0.0010, 0.0095,-0.0126,-0.0192,-0.0097,-0.0024, 0.0018, 2.4907
17-Jan-2019 10:27:01.502,-0.0060,-0.0027,-0.9920,-0.0039,-0.0004, 0.0135,-0.0137,-0.0181,-0.0118,-0.0024, 0.0018, 2.4907
17-Jan-2019 10:27:01.541,-0.0040,-0.0040,-0.9861,-0.0032,-0.0019, 0.0157,-0.0116,-0.0096,-0.0118,-0.0024, 0.0018, 2.4907
17-Jan-2019 10:27:01.581,-0.0061,-0.0014,-0.9767,-0.0023, 0.0003, 0.0089,-0.0126,-0.0181,-0.0107,-0.0024, 0.0018, 2.4907
17-Jan-2019 10:27:01.621,-0.0065,-0.0020,-0.9815,-0.0017,-0.0014, 0.0119,-0.0126,-0.0213,-0.0118,-0.0024, 0.0018, 2.4907
17-Jan-2019 10:27:01.661,-0.0023,-0.0022,-0.9918,-0.0029, 0.0009, 0.0282,-0.0115,-0.0149,-0.0118,-0.0025, 0.0018, 2.4907
17-Jan-2019 10:27:01.700,-0.0049,-0.0020,-0.9784,-0.0040, 0.0000, 0.0178,-0.0074,-0.0021,-0.0139,-0.0025, 0.0018, 2.4907
17-Jan-2019 10:27:01.740,-0.0067,-0.0027,-0.9751,-0.0018,-0.0020, 0.0035,-0.0104,-0.0224,-0.0097,-0.0025, 0.0018, 2.4907
17-Jan-2019 10:27:01.780,-0.0068,-0.0022,-0.9906,-0.0015,-0.0005, 0.0172,-0.0094,-0.0149,-0.0139,-0.0025, 0.0018, 2.4907
17-Jan-2019 10:27:01.820,-0.0036,-0.0027,-0.9960,-0.0034,-0.0015, 0.0213,-0.0094,-0.0149,-0.0129,-0.0025, 0.0018, 2.4907
17-Jan-2019 10:27:01.860,-0.0047,-0.0051,-0.9847,-0.0053, 0.0014, 0.0156,-0.0105,-0.0064,-0.0128,-0.0025, 0.0018, 2.4907
17-Jan-2019 10:27:01.900,-0.0053,-0.0020,-0.9688,-0.0027,-0.0000,-0.0018,-0.0073,-0.0085,-0.0107,-0.0025, 0.0019, 2.4907
17-Jan-2019 10:27:01.939,-0.0061,-0.0020,-0.9815, 0.0002,-0.0027, 0.0055,-0.0115,-0.0287,-0.0118,-0.0025, 0.0019, 2.4907
17-Jan-2019 10:27:01.979,-0.0043,-0.0011,-0.9989,-0.0050,-0.0005, 0.0311,-0.0094,-0.0128,-0.0118,-0.0025, 0.0019, 2.4907
17-Jan-2019 10:27:02.018,-0.0046,-0.0041,-0.9845,-0.0031, 0.0008, 0.0265,-0.0095,-0.0064,-0.0118,-0.0025, 0.0019, 2.4907
17-Jan-2019 10:27:02.058,-0.0055,-0.0025,-0.9697,-0.0042, 0.0008, 0.0060,-0.0084,-0.0117,-0.0118,-0.0025, 0.0019, 2.4907
17-Jan-2019 10:27:02.098,-0.0086,-0.0008,-0.9807,-0.0012,-0.0012, 0.0081,-0.0083,-0.0202,-0.0129,-0.0025, 0.0019, 2.4907
17-Jan-2019 10:27:02.138,-0.0057,-0.0024,-0.9965,-0.0012,-0.0025, 0.0260,-0.0115,-0.0192,-0.0118,-0.0026, 0.0019, 2.4907
17-Jan-2019 10:27:02.177,-0.0035,-0.0043,-0.9925,-0.0046, 0.0001, 0.0254,-0.0084,-0.0021,-0.0118,-0.0025, 0.0019, 2.4907
17-Jan-2019 10:27:02.217,-0.0067,-0.0049,-0.9765,-0.0015, 0.0018, 0.0057,-0.0116,-0.0138,-0.0118,-0.0025, 0.0019, 2.4907
17-Jan-2019 10:27:02.257,-0.0042,-0.0021,-0.9839,-0.0017,-0.0004, 0.0078,-0.0115,-0.0224,-0.0118,-0.0026, 0.0019, 2.4907
17-Jan-2019 10:27:02.297,-0.0044,-0.0019,-0.9938,-0.0032,-0.0014, 0.0250,-0.0084,-0.0106,-0.0128,-0.0026, 0.0020, 2.4907
17-Jan-2019 10:27:02.336,-0.0040,-0.0031,-0.9821,-0.0030, 0.0002, 0.0218,-0.0105,-0.0138,-0.0129,-0.0025, 0.0020, 2.4907
17-Jan-2019 10:27:02.376,-0.0059,-0.0030,-0.9753,-0.0036, 0.0001, 0.0114,-0.0084,-0.0117,-0.0118,-0.0025, 0.0020, 2.4906
17-Jan-2019 10:27:02.416,-0.0061,-0.0028,-0.9821,-0.0028,-0.0018, 0.0137,-0.0094,-0.0181,-0.0118,-0.0025, 0.0020, 2.4906
17-Jan-2019 10:27:02.456,-0.0052,-0.0015,-0.9883,-0.0023,-0.0008, 0.0229,-0.0105,-0.0138,-0.0118,-0.0025, 0.0020, 2.4906
17-Jan-2019 10:27:02.495,-0.0049,-0.0032,-0.9829,-0.0036,-0.0004, 0.0145,-0.0094,-0.0117,-0.0129,-0.0025, 0.0020, 2.4906
17-Jan-2019 10:27:02.535,-0.0065,-0.0028,-0.9838,-0.0017, 0.0003, 0.0093,-0.0094,-0.0160,-0.0107,-0.0025, 0.0020, 2.4906
17-Jan-2019 10:27:02.575,-0.0069,-0.0019,-0.9902,-0.0041,-0.0007, 0.0155,-0.0094,-0.0159,-0.0129,-0.0025, 0.0020, 2.4906
17-Jan-2019 10:27:02.614,-0.0059,-0.0013,-0.9922,-0.0030,-0.0020, 0.0215,-0.0094,-0.0138,-0.0118,-0.0025, 0.0019, 2.4906
17-Jan-2019 10:27:02.654,-0.0049,-0.0041,-0.9812,-0.0039, 0.0000, 0.0148,-0.0116,-0.0128,-0.0118,-0.0025, 0.0020, 2.4906
17-Jan-2019 10:27:02.694,-0.0074,-0.0020,-0.9799,-0.0029,-0.0004, 0.0105,-0.0073,-0.0159,-0.0128,-0.0025, 0.0020, 2.4906
17-Jan-2019 10:27:02.733,-0.0062,-0.0032,-0.9876,-0.0017,-0.0009, 0.0183,-0.0105,-0.0149,-0.0129,-0.0026, 0.0020, 2.4906
17-Jan-2019 10:27:02.773,-0.0062,-0.0025,-0.9852,-0.0026, 0.0002, 0.0191,-0.0105,-0.0128,-0.0107,-0.0025, 0.0020, 2.4906
17-Jan-2019 10:27:02.813,-0.0044,-0.0028,-0.9782,-0.0030,-0.0003, 0.0133,-0.0105,-0.0160,-0.0118,-0.0026, 0.0020, 2.4905
17-Jan-2019 10:27:02.853,-0.0048,-0.0021,-0.9812,-0.0030, 0.0003, 0.0154,-0.0094,-0.0160,-0.0118,-0.0025, 0.0020, 2.4905
17-Jan-2019 10:27:02.893,-0.0051,-0.0009,-0.9865,-0.0034,-0.0021, 0.0199,-0.0105,-0.0138,-0.0107,-0.0026, 0.0020, 2.4905
17-Jan-2019 10:27:02.932,-0.0052,-0.0028,-0.9853,-0.0029,-0.0006, 0.0168,-0.0084,-0.0127,-0.0128,-0.0026, 0.0020, 2.4905
17-Jan-2019 10:27:02.972,-0.0057,-0.0026,-0.9799,-0.0041,-0.0010, 0.0114,-0.0105,-0.0117,-0.0118,-0.0026, 0.0020, 2.4905
17-Jan-2019 10:27:03.012,-0.0071,-0.0026,-0.9853,-0.0023,-0.0006, 0.0103,-0.0105,-0.0138,-0.0129,-0.0026, 0.0020, 2.4905
17-Jan-2019 10:27:03.052,-0.0045,-0.0021,-0.9905,-0.0017,-0.0007, 0.0185,-0.0115,-0.0160,-0.0118,-0.0026, 0.0020, 2.4905
17-Jan-2019 10:27:03.091,-0.0051,-0.0032,-0.9863,-0.0021,-0.0016, 0.0168,-0.0094,-0.0106,-0.0118,-0.0026, 0.0020, 2.4904
17-Jan-2019 10:27:03.131,-0.0052,-0.0037,-0.9779,-0.0037, 0.0003, 0.0137,-0.0084,-0.0127,-0.0128,-0.0027, 0.0020, 2.4904
17-Jan-2019 10:27:03.171,-0.0066,-0.0011,-0.9846,-0.0019,-0.0008, 0.0184,-0.0094,-0.0128,-0.0129,-0.0027, 0.0020, 2.4904
17-Jan-2019 10:27:03.210,-0.0061,-0.0026,-0.9882,-0.0021,-0.0012, 0.0229,-0.0105,-0.0138,-0.0118,-0.0027, 0.0020, 2.4904
17-Jan-2019 10:27:03.250,-0.0056,-0.0048,-0.9844,-0.0032,-0.0001, 0.0144,-0.0105,-0.0149,-0.0129,-0.0027, 0.0020, 2.4904
17-Jan-2019 10:27:03.291,-0.0054,-0.0009,-0.9825,-0.0017, 0.0004, 0.0103,-0.0105,-0.0138,-0.0129,-0.0028, 0.0020, 2.4904
17-Jan-2019 10:27:03.330,-0.0044,-0.0024,-0.9874,-0.0005, 0.0002, 0.0157,-0.0094,-0.0138,-0.0129,-0.0028, 0.0020, 2.4904
17-Jan-2019 10:27:03.369,-0.0065,-0.0020,-0.9870,-0.0033,-0.0014, 0.0186,-0.0094,-0.0149,-0.0118,-0.0028, 0.0020, 2.4904
17-Jan-2019 10:27:03.409,-0.0049,-0.0021,-0.9813,-0.0031, 0.0007, 0.0142,-0.0105,-0.0160,-0.0129,-0.0028, 0.0020, 2.4904
17-Jan-2019 10:27:03.449,-0.0038,-0.0024,-0.9801,-0.0028,-0.0005, 0.0138,-0.0115,-0.0170,-0.0118,-0.0028, 0.0020, 2.4903
17-Jan-2019 10:27:03.489,-0.0067,-0.0025,-0.9855,-0.0018,-0.0012, 0.0194,-0.0126,-0.0160,-0.0118,-0.0028, 0.0020, 2.4903
17-Jan-2019 10:27:03.529,-0.0052,-0.0029,-0.9832,-0.0043,-0.0018, 0.0195,-0.0094,-0.0149,-0.0118,-0.0028, 0.0020, 2.4904
17-Jan-2019 10:27:03.568,-0.0050,-0.0019,-0.9828,-0.0026, 0.0002, 0.0101,-0.0105,-0.0160,-0.0118,-0.0028, 0.0020, 2.4904
17-Jan-2019 10:27:03.608,-0.0054,-0.0020,-0.9842,-0.0023,-0.0000, 0.0140,-0.0126,-0.0160,-0.0118,-0.0029, 0.0020, 2.4903
17-Jan-2019 10:27:03.647,-0.0052,-0.0012,-0.9885,-0.0022,-0.0026, 0.0170,-0.0115,-0.0181,-0.0118,-0.0029, 0.0020, 2.4903
17-Jan-2019 10:27:03.687,-0.0055,-0.0023,-0.9858,-0.0025,-0.0000, 0.0154,-0.0094,-0.0149,-0.0118,-0.0029, 0.0020, 2.4903
17-Jan-2019 10:27:03.727,-0.0046,-0.0022,-0.9825,-0.0029,-0.0002, 0.0137,-0.0105,-0.0160,-0.0129,-0.0029, 0.0020, 2.4903
17-Jan-2019 10:27:03.767,-0.0056,-0.0025,-0.9815,-0.0023, 0.0011, 0.0162,-0.0115,-0.0160,-0.0129,-0.0029, 0.0020, 2.4903
17-Jan-2019 10:27:03.806,-0.0053,-0.0012,-0.9840,-0.0025,-0.0006, 0.0193,-0.0115,-0.0149,-0.0118,-0.0029, 0.0020, 2.4903
17-Jan-2019 10:27:03.846,-0.0055,-0.0035,-0.9863,-0.0031, 0.0007, 0.0223,-0.0105,-0.0138,-0.0118,-0.0029, 0.0020, 2.4902
17-Jan-2019 10:27:03.886,-0.0049,-0.0034,-0.9821,-0.0039,-0.0002, 0.0147,-0.0105,-0.0160,-0.0107,-0.0029, 0.0020, 2.4902
17-Jan-2019 10:27:03.925,-0.0049,-0.0022,-0.9826,-0.0016,-0.0005, 0.0122,-0.0083,-0.0181,-0.0118,-0.0029, 0.0020, 2.4902
17-Jan-2019 10:27:03.966,-0.0051,-0.0023,-0.9866,-0.0021,-0.0021, 0.0164,-0.0105,-0.0160,-0.0118,-0.0030, 0.0020, 2.4902
17-Jan-2019 10:27:04.005,-0.0044,-0.0020,-0.9860,-0.0009,-0.0010, 0.0179,-0.0126,-0.0160,-0.0118,-0.0030, 0.0020, 2.4902
17-Jan-2019 10:27:04.045,-0.0061,-0.0024,-0.9829,-0.0040,-0.0008, 0.0130,-0.0094,-0.0117,-0.0118,-0.0030, 0.0019, 2.4902
17-Jan-2019 10:27:04.084,-0.0060,-0.0017,-0.9836,-0.0022,-0.0024, 0.0142,-0.0094,-0.0128,-0.0118,-0.0030, 0.0019, 2.4902
17-Jan-2019 10:27:04.124,-0.0069, 0.0004,-0.9865, 0.0001,-0.0017, 0.0198,-0.0105,-0.0149,-0.0118,-0.0030, 0.0019, 2.4902
17-Jan-2019 10:27:04.164,-0.0073,-0.0017,-0.9750,-0.0024,-0.0020, 0.0192,-0.0105,-0.0106,-0.0118,-0.0030, 0.0019, 2.4902
17-Jan-2019 10:27:04.204,-0.0110, 0.0045,-0.9776,-0.0020, 0.0012, 0.0169,-0.0094,-0.0117,-0.0118,-0.0030, 0.0019, 2.4902
17-Jan-2019 10:27:04.243,-0.0091,-0.0009,-0.9866, 0.0009,-0.0061, 0.0150,-0.0105,-0.0159,-0.0139,-0.0030, 0.0019, 2.4902
17-Jan-2019 10:27:04.284,-0.0096, 0.0022,-0.9912,-0.0013, 0.0003, 0.0162,-0.0094,-0.0138,-0.0118,-0.0031, 0.0019, 2.4902
17-Jan-2019 10:27:04.323,-0.0075,-0.0037,-0.9872,-0.0025,-0.0033, 0.0147,-0.0105,-0.0149,-0.0118,-0.0031, 0.0019, 2.4903
17-Jan-2019 10:27:04.363,-0.0085, 0.0004,-0.9799,-0.0034,-0.0007, 0.0133,-0.0115,-0.0160,-0.0129,-0.0031, 0.0019, 2.4902
17-Jan-2019 10:27:04.402,-0.0092,-0.0040,-0.9821,-0.0006,-0.0060, 0.0192,-0.0105,-0.0170,-0.0129,-0.0031, 0.0019, 2.4902
17-Jan-2019 10:27:04.442,-0.0078,-0.0025,-0.9792,-0.0008,-0.0019, 0.0299,-0.0105,-0.0106,-0.0118,-0.0031, 0.0019, 2.4903
17-Jan-2019 10:27:04.482,-0.0089,-0.0078,-0.9791,-0.0002,-0.0030, 0.0269,-0.0073,-0.0074,-0.0118,-0.0031, 0.0019, 2.4903
17-Jan-2019 10:27:04.522,-0.0106,-0.0054,-0.9730,-0.0054,-0.0015, 0.0156,-0.0105,-0.0128,-0.0107,-0.0031, 0.0019, 2.4903
17-Jan-2019 10:27:04.562,-0.0096,-0.0052,-0.9849,-0.0017,-0.0043, 0.0167,-0.0126,-0.0202,-0.0118,-0.0032, 0.0019, 2.4903
17-Jan-2019 10:27:04.601,-0.0067,-0.0044,-0.9956,-0.0028, 0.0005, 0.0227,-0.0084,-0.0138,-0.0129,-0.0032, 0.0019, 2.4903
17-Jan-2019 10:27:04.641,-0.0023,-0.0042,-0.9887, 0.0023, 0.0021, 0.0137,-0.0084,-0.0096,-0.0107,-0.0032, 0.0019, 2.4903
17-Jan-2019 10:27:04.681,-0.0081,-0.0036,-0.9832,-0.0002, 0.0011, 0.0025,-0.0094,-0.0138,-0.0129,-0.0032, 0.0020, 2.4903
17-Jan-2019 10:27:04.720,-0.0068,-0.0046,-0.9911,-0.0007,-0.0065, 0.0085,-0.0104,-0.0202,-0.0129,-0.0032, 0.0020, 2.4903
17-Jan-2019 10:27:04.760,-0.0039,-0.0018,-0.9958,-0.0014, 0.0038, 0.0245,-0.0084,-0.0138,-0.0107,-0.0032, 0.0020, 2.4903
17-Jan-2019 10:27:04.800,-0.0041,-0.0024,-0.9805,-0.0027, 0.0014, 0.0188,-0.0063,-0.0064,-0.0118,-0.0032, 0.0020, 2.4904
17-Jan-2019 10:27:04.839,-0.0057,-0.0004,-0.9704, 0.0005, 0.0054, 0.0114,-0.0084,-0.0117,-0.0118,-0.0032, 0.0020, 2.4904
17-Jan-2019 10:27:04.879,-0.0111, 0.0004,-0.9735,-0.0018,-0.0032, 0.0158,-0.0104,-0.0202,-0.0118,-0.0032, 0.0020, 2.4904
17-Jan-2019 10:27:04.919,-0.0115,-0.0050,-0.9872,-0.0088,-0.0085, 0.0254,-0.0105,-0.0149,-0.0107,-0.0032, 0.0020, 2.4904
17-Jan-2019 10:27:04.959,-0.0055,-0.0020,-0.9898,-0.0035, 0.0031, 0.0233,-0.0094,-0.0138,-0.0107,-0.0033, 0.0020, 2.4904
17-Jan-2019 10:27:04.998,-0.0036,-0.0052,-0.9793, 0.0009,-0.0006, 0.0103,-0.0073,-0.0085,-0.0118,-0.0033, 0.0020, 2.4904
17-Jan-2019 10:27:05.038,-0.0036,-0.0072,-0.9791, 0.0018, 0.0020, 0.0015,-0.0094,-0.0170,-0.0129,-0.0033, 0.0021, 2.4904
17-Jan-2019 10:27:05.078,-0.0039, 0.0077,-0.9934,-0.0031, 0.0105, 0.0141,-0.0126,-0.0192,-0.0118,-0.0033, 0.0021, 2.4904
17-Jan-2019 10:27:05.118,-0.0064,-0.0055,-0.9914,-0.0039,-0.0034, 0.0168,-0.0105,-0.0106,-0.0129,-0.0033, 0.0021, 2.4904
17-Jan-2019 10:27:05.157,-0.0089,-0.0016,-0.9800,-0.0034, 0.0008, 0.0122,-0.0105,-0.0117,-0.0097,-0.0032, 0.0021, 2.4904
17-Jan-2019 10:27:05.197,-0.0090,-0.0023,-0.9777,-0.0036,-0.0055, 0.0061,-0.0136,-0.0234,-0.0108,-0.0032, 0.0020, 2.4904
17-Jan-2019 10:27:05.237,-0.0050,-0.0045,-0.9863,-0.0038, 0.0008, 0.0214,-0.0105,-0.0128,-0.0118,-0.0033, 0.0020, 2.4905
17-Jan-2019 10:27:05.277,-0.0074, 0.0002,-0.9804,-0.0044, 0.0029, 0.0262,-0.0105,-0.0106,-0.0118,-0.0033, 0.0021, 2.4905
17-Jan-2019 10:27:05.316,-0.0038,-0.0032,-0.9786, 0.0009,-0.0011, 0.0187,-0.0105,-0.0160,-0.0097,-0.0033, 0.0021, 2.4905
17-Jan-2019 10:27:05.356,-0.0044,-0.0016,-0.9802,-0.0014, 0.0001, 0.0162,-0.0104,-0.0191,-0.0129,-0.0033, 0.0021, 2.4905
17-Jan-2019 10:27:05.396,-0.0047,-0.0009,-0.9904,-0.0007,-0.0010, 0.0173,-0.0083,-0.0159,-0.0129,-0.0032, 0.0021, 2.4905
17-Jan-2019 10:27:05.436,-0.0027,-0.0036,-0.9854,-0.0012,-0.0006, 0.0176,-0.0105,-0.0106,-0.0118,-0.0032, 0.0021, 2.4905
17-Jan-2019 10:27:05.475,-0.0132,-0.0020,-0.9814,-0.0084,-0.0006, 0.0092,-0.0084,-0.0127,-0.0139,-0.0032, 0.0020, 2.4905
17-Jan-2019 10:27:05.515,-0.0042,-0.0017,-0.9844,-0.0008,-0.0006, 0.0115,-0.0094,-0.0138,-0.0129,-0.0032, 0.0020, 2.4905
17-Jan-2019 10:27:05.555,-0.0027, 0.0016,-0.9880,-0.0022, 0.0017, 0.0189,-0.0105,-0.0138,-0.0118,-0.0032, 0.0020, 2.4905
17-Jan-2019 10:27:05.595,-0.0092,-0.0066,-0.9826,-0.0078,-0.0070, 0.0197,-0.0105,-0.0138,-0.0118,-0.0032, 0.0020, 2.4905
17-Jan-2019 10:27:05.634,-0.0057,-0.0031,-0.9762,-0.0018, 0.0007, 0.0161,-0.0126,-0.0160,-0.0107,-0.0032, 0.0020, 2.4905
17-Jan-2019 10:27:05.674,-0.0089,-0.0029,-0.9818,-0.0022,-0.0004, 0.0150,-0.0105,-0.0192,-0.0107,-0.0033, 0.0020, 2.4905
17-Jan-2019 10:27:05.714,-0.0043,-0.0005,-0.9887,-0.0030, 0.0007, 0.0185,-0.0094,-0.0160,-0.0118,-0.0033, 0.0019, 2.4905
17-Jan-2019 10:27:05.754,-0.0057,-0.0028,-0.9860,-0.0012,-0.0004, 0.0148,-0.0094,-0.0160,-0.0118,-0.0033, 0.0019, 2.4905
17-Jan-2019 10:27:05.793,-0.0056,-0.0054,-0.9854,-0.0029,-0.0013, 0.0115,-0.0083,-0.0138,-0.0139,-0.0033, 0.0019, 2.4906
17-Jan-2019 10:27:05.833,-0.0065,-0.0017,-0.9857,-0.0019,-0.0009, 0.0162,-0.0105,-0.0160,-0.0107,-0.0033, 0.0019, 2.4906
17-Jan-2019 10:27:05.873,-0.0046,-0.0021,-0.9862,-0.0009,-0.0005, 0.0176,-0.0084,-0.0138,-0.0107,-0.0033, 0.0019, 2.4906
17-Jan-2019 10:27:05.913,-0.0064,-0.0028,-0.9789,-0.0031, 0.0011, 0.0171,-0.0105,-0.0117,-0.0118,-0.0033, 0.0019, 2.4906
17-Jan-2019 10:27:05.952,-0.0064,-0.0045,-0.9809,-0.0018,-0.0012, 0.0143,-0.0094,-0.0128,-0.0107,-0.0033, 0.0019, 2.4906
17-Jan-2019 10:27:05.992,-0.0066,-0.0003,-0.9872,-0.0042, 0.0002, 0.0197,-0.0105,-0.0149,-0.0118,-0.0033, 0.0019, 2.4906
17-Jan-2019 10:27:06.032,-0.0037,-0.0022,-0.9855,-0.0005,-0.0004, 0.0177,-0.0105,-0.0149,-0.0107,-0.0033, 0.0019, 2.4906
17-Jan-2019 10:27:06.072,-0.0069,-0.0045,-0.9817,-0.0018,-0.0002, 0.0136,-0.0105,-0.0149,-0.0129,-0.0033, 0.0019, 2.4906
17-Jan-2019 10:27:06.111,-0.0066,-0.0010,-0.9852,-0.0031,-0.0007, 0.0132,-0.0105,-0.0170,-0.0118,-0.0033, 0.0019, 2.4906
17-Jan-2019 10:27:06.151,-0.0062,-0.0026,-0.9867,-0.0022,-0.0003, 0.0153,-0.0126,-0.0160,-0.0118,-0.0033, 0.0019, 2.4906
17-Jan-2019 10:27:06.191,-0.0063,-0.0027,-0.9862,-0.0030,-0.0003, 0.0152,-0.0115,-0.0138,-0.0129,-0.0033, 0.0019, 2.4906
17-Jan-2019 10:27:06.231,-0.0065,-0.0022,-0.9802,-0.0014,-0.0003, 0.0133,-0.0105,-0.0106,-0.0118,-0.0033, 0.0019, 2.4906
17-Jan-2019 10:27:06.270,-0.0057,-0.0031,-0.9836,-0.0018, 0.0000, 0.0155,-0.0084,-0.0128,-0.0118,-0.0033, 0.0019, 2.4906
17-Jan-2019 10:27:06.310,-0.0067,-0.0003,-0.9863,-0.0032,-0.0008, 0.0221,-0.0115,-0.0149,-0.0118,-0.0033, 0.0018, 2.4906
17-Jan-2019 10:27:06.350,-0.0063,-0.0040,-0.9828,-0.0021,-0.0011, 0.0182,-0.0105,-0.0149,-0.0118,-0.0033, 0.0018, 2.4906
17-Jan-2019 10:27:06.389,-0.0058,-0.0025,-0.9787,-0.0036, 0.0008, 0.0138,-0.0094,-0.0117,-0.0107,-0.0033, 0.0018, 2.4906
17-Jan-2019 10:27:06.429,-0.0015,-0.0025,-0.9853,-0.0007,-0.0003, 0.0143,-0.0105,-0.0149,-0.0129,-0.0034, 0.0017, 2.4907
17-Jan-2019 10:27:06.469,-0.0042,-0.0011,-0.9886, 0.0014, 0.0000, 0.0184,-0.0126,-0.0170,-0.0118,-0.0034, 0.0017, 2.4907
17-Jan-2019 10:27:06.509,-0.0074,-0.0033,-0.9851,-0.0043,-0.0021, 0.0136,-0.0147,-0.0213,-0.0108,-0.0033, 0.0017, 2.4907
17-Jan-2019 10:27:06.548,-0.0053,-0.0015,-0.9825,-0.0019, 0.0001, 0.0091,-0.0115,-0.0160,-0.0118,-0.0033, 0.0017, 2.4907
17-Jan-2019 10:27:06.588,-0.0069,-0.0014,-0.9875,-0.0010, 0.0001, 0.0150,-0.0084,-0.0138,-0.0107,-0.0033, 0.0016, 2.4907
17-Jan-2019 10:27:06.628,-0.0072,-0.0023,-0.9877,-0.0035,-0.0013, 0.0193,-0.0105,-0.0106,-0.0107,-0.0033, 0.0016, 2.4907
17-Jan-2019 10:27:06.667,-0.0070,-0.0016,-0.9821,-0.0032,-0.0009, 0.0165,-0.0094,-0.0106,-0.0107,-0.0033, 0.0016, 2.4907
17-Jan-2019 10:27:06.707,-0.0037,-0.0027,-0.9790,-0.0005,-0.0013, 0.0143,-0.0073,-0.0085,-0.0118,-0.0033, 0.0015, 2.4907
17-Jan-2019 10:27:06.747,-0.0073,-0.0024,-0.9831,-0.0026,-0.0001, 0.0203,-0.0094,-0.0106,-0.0107,-0.0033, 0.0015, 2.4907
17-Jan-2019 10:27:06.786,-0.0063,-0.0013,-0.9845,-0.0026,-0.0011, 0.0187,-0.0094,-0.0138,-0.0118,-0.0033, 0.0015, 2.4907
17-Jan-2019 10:27:06.826,-0.0049,-0.0038,-0.9811,-0.0017,-0.0002, 0.0125,-0.0126,-0.0170,-0.0129,-0.0033, 0.0015, 2.4907
17-Jan-2019 10:27:06.866,-0.0059,-0.0019,-0.9859,-0.0013, 0.0004, 0.0115,-0.0105,-0.0181,-0.0118,-0.0034, 0.0014, 2.4907
17-Jan-2019 10:27:06.906,-0.0066,-0.0012,-0.9886,-0.0016,-0.0015, 0.0163,-0.0083,-0.0159,-0.0139,-0.0033, 0.0014, 2.4907
17-Jan-2019 10:27:06.946,-0.0051,-0.0023,-0.9877,-0.0032,-0.0016, 0.0157,-0.0095,-0.0064,-0.0118,-0.0034, 0.0014, 2.4907
17-Jan-2019 10:27:06.985,-0.0049,-0.0025,-0.9848,-0.0015,-0.0000, 0.0105,-0.0115,-0.0170,-0.0118,-0.0034, 0.0014, 2.4907
17-Jan-2019 10:27:07.025,-0.0053,-0.0026,-0.9849,-0.0025,-0.0010, 0.0114,-0.0126,-0.0202,-0.0118,-0.0034, 0.0013, 2.4906
17-Jan-2019 10:27:07.065,-0.0054,-0.0013,-0.9863,-0.0023,-0.0015, 0.0190,-0.0094,-0.0149,-0.0118,-0.0034, 0.0013, 2.4907
17-Jan-2019 10:27:07.104,-0.0050,-0.0009,-0.9812,-0.0021,-0.0005, 0.0207,-0.0105,-0.0106,-0.0118,-0.0034, 0.0013, 2.4907
17-Jan-2019 10:27:07.144,-0.0057,-0.0031,-0.9781,-0.0042, 0.0015, 0.0146,-0.0104,-0.0191,-0.0129,-0.0034, 0.0014, 2.4906
17-Jan-2019 10:27:07.184,-0.0056,-0.0026,-0.9842,-0.0012,-0.0016, 0.0173,-0.0115,-0.0170,-0.0118,-0.0035, 0.0014, 2.4906
17-Jan-2019 10:27:07.224,-0.0045, 0.0002,-0.9881,-0.0010,-0.0009, 0.0202,-0.0084,-0.0064,-0.0128,-0.0034, 0.0014, 2.4906
17-Jan-2019 10:27:07.263,-0.0044,-0.0020,-0.9842,-0.0024, 0.0017, 0.0157,-0.0126,-0.0128,-0.0118,-0.0035, 0.0014, 2.4906
17-Jan-2019 10:27:07.303,-0.0076,-0.0024,-0.9822,-0.0038,-0.0009, 0.0090,-0.0157,-0.0256,-0.0118,-0.0035, 0.0013, 2.4906
17-Jan-2019 10:27:07.343,-0.0069,-0.0013,-0.9873,-0.0016,-0.0013, 0.0148,-0.0094,-0.0160,-0.0107,-0.0035, 0.0014, 2.4906
17-Jan-2019 10:27:07.382,-0.0067,-0.0018,-0.9894,-0.0020,-0.0014, 0.0176,-0.0063, 0.0000,-0.0128,-0.0035, 0.0014, 2.4906
17-Jan-2019 10:27:07.423,-0.0063,-0.0027,-0.9838,-0.0039,-0.0010, 0.0109,-0.0115,-0.0192,-0.0118,-0.0036, 0.0013, 2.4906
17-Jan-2019 10:27:07.462,-0.0047,-0.0027,-0.9808,-0.0024, 0.0003, 0.0119,-0.0104,-0.0191,-0.0129,-0.0036, 0.0013, 2.4906
17-Jan-2019 10:27:07.502,-0.0067,-0.0018,-0.9850,-0.0024,-0.0007, 0.0203,-0.0115,-0.0149,-0.0118,-0.0036, 0.0013, 2.4906
17-Jan-2019 10:27:07.542,-0.0050,-0.0018,-0.9838,-0.0015,-0.0007, 0.0196,-0.0105,-0.0117,-0.0118,-0.0036, 0.0014, 2.4906
17-Jan-2019 10:27:07.581,-0.0045,-0.0016,-0.9775,-0.0004, 0.0011, 0.0163,-0.0094,-0.0181,-0.0129,-0.0037, 0.0014, 2.4906
17-Jan-2019 10:27:07.621,-0.0062,-0.0023,-0.9820,-0.0027,-0.0006, 0.0156,-0.0094,-0.0106,-0.0128,-0.0037, 0.0014, 2.4906
17-Jan-2019 10:27:07.660,-0.0074,-0.0018,-0.9895,-0.0028,-0.0010, 0.0150,-0.0094,-0.0138,-0.0129,-0.0037, 0.0013, 2.4906
17-Jan-2019 10:27:07.700,-0.0059,-0.0021,-0.9891,-0.0026,-0.0012, 0.0152,-0.0105,-0.0160,-0.0129,-0.0037, 0.0014, 2.4906
17-Jan-2019 10:27:07.740,-0.0052,-0.0025,-0.9838,-0.0026, 0.0010, 0.0101,-0.0115,-0.0170,-0.0097,-0.0038, 0.0013, 2.4905
17-Jan-2019 10:27:07.780,-0.0054,-0.0017,-0.9831,-0.0015,-0.0001, 0.0107,-0.0073,-0.0138,-0.0118,-0.0038, 0.0014, 2.4906
17-Jan-2019 10:27:07.819,-0.0079,-0.0006,-0.9900,-0.0025,-0.0019, 0.0170,-0.0115,-0.0181,-0.0118,-0.0038, 0.0013, 2.4905
17-Jan-2019 10:27:07.859,-0.0067,-0.0016,-0.9870,-0.0030,-0.0005, 0.0178,-0.0115,-0.0181,-0.0129,-0.0038, 0.0014, 2.4905
17-Jan-2019 10:27:07.899,-0.0050,-0.0044,-0.9817,-0.0022, 0.0010, 0.0150,-0.0105,-0.0149,-0.0129,-0.0038, 0.0014, 2.4905
17-Jan-2019 10:27:07.939,-0.0068,-0.0032,-0.9806,-0.0038,-0.0001, 0.0157,-0.0084,-0.0117,-0.0128,-0.0038, 0.0014, 2.4905
17-Jan-2019 10:27:07.979,-0.0064, 0.0007,-0.9844,-0.0015,-0.0037, 0.0179,-0.0105,-0.0160,-0.0118,-0.0038, 0.0014, 2.4905
17-Jan-2019 10:27:08.018,-0.0069,-0.0010,-0.9861,-0.0022,-0.0014, 0.0175,-0.0126,-0.0170,-0.0129,-0.0039, 0.0014, 2.4905
17-Jan-2019 10:27:08.058,-0.0052,-0.0038,-0.9863,-0.0036, 0.0010, 0.0154,-0.0105,-0.0149,-0.0129,-0.0039, 0.0014, 2.4905
17-Jan-2019 10:27:08.098,-0.0058,-0.0028,-0.9853,-0.0041, 0.0018, 0.0119,-0.0105,-0.0096,-0.0118,-0.0039, 0.0014, 2.4905
17-Jan-2019 10:27:08.138,-0.0059, 0.0006,-0.9864,-0.0014,-0.0012, 0.0108,-0.0105,-0.0149,-0.0118,-0.0039, 0.0014, 2.4905
17-Jan-2019 10:27:08.177,-0.0065,-0.0005,-0.9851,-0.0002,-0.0035, 0.0131,-0.0136,-0.0202,-0.0118,-0.0039, 0.0014, 2.4905
17-Jan-2019 10:27:08.217,-0.0056,-0.0043,-0.9865,-0.0033,-0.0013, 0.0179,-0.0094,-0.0160,-0.0118,-0.0039, 0.0014, 2.4905
17-Jan-2019 10:27:08.257,-0.0062,-0.0034,-0.9844,-0.0032, 0.0019, 0.0189,-0.0084,-0.0106,-0.0118,-0.0039, 0.0014, 2.4905
17-Jan-2019 10:27:08.296,-0.0076,-0.0017,-0.9805,-0.0026,-0.0013, 0.0162,-0.0105,-0.0149,-0.0118,-0.0039, 0.0015, 2.4905
17-Jan-2019 10:27:08.336,-0.0058,-0.0011,-0.9808,-0.0017,-0.0018, 0.0129,-0.0126,-0.0170,-0.0118,-0.0039, 0.0014, 2.4905
17-Jan-2019 10:27:08.376,-0.0060,-0.0012,-0.9852,-0.0025, 0.0009, 0.0186,-0.0094,-0.0170,-0.0118,-0.0039, 0.0014, 2.4905
17-Jan-2019 10:27:08.416,-0.0069,-0.0026,-0.9872,-0.0020,-0.0006, 0.0186,-0.0063,-0.0106,-0.0107,-0.0039, 0.0014, 2.4905
17-Jan-2019 10:27:08.456,-0.0076,-0.0006,-0.9841,-0.0028,-0.0012, 0.0141,-0.0083,-0.0170,-0.0107,-0.0039, 0.0015, 2.4905
17-Jan-2019 10:27:08.495,-0.0071,-0.0006,-0.9848,-0.0021,-0.0009, 0.0106,-0.0137,-0.0181,-0.0108,-0.0039, 0.0015, 2.4905
17-Jan-2019 10:27:08.535,-0.0067,-0.0024,-0.9879,-0.0032, 0.0004, 0.0145,-0.0083,-0.0159,-0.0129,-0.0040, 0.0015, 2.4905
17-Jan-2019 10:27:08.575,-0.0061,-0.0013,-0.9875,-0.0019,-0.0005, 0.0171,-0.0084,-0.0085,-0.0118,-0.0040, 0.0016, 2.4905
17-Jan-2019 10:27:08.614,-0.0056,-0.0005,-0.9810,-0.0018,-0.0007, 0.0150,-0.0094,-0.0149,-0.0129,-0.0040, 0.0016, 2.4905
17-Jan-2019 10:27:08.654,-0.0066,-0.0006,-0.9792,-0.0019,-0.0002, 0.0147,-0.0094,-0.0213,-0.0129,-0.0040, 0.0016, 2.4905
17-Jan-2019 10:27:08.694,-0.0052,-0.0022,-0.9856,-0.0019, 0.0010, 0.0196,-0.0094,-0.0138,-0.0118,-0.0040, 0.0017, 2.4905
17-Jan-2019 10:27:08.734,-0.0052,-0.0012,-0.9863,-0.0018, 0.0001, 0.0193,-0.0073,-0.0106,-0.0107,-0.0040, 0.0017, 2.4905
17-Jan-2019 10:27:08.773,-0.0054,-0.0002,-0.9802,-0.0016,-0.0008, 0.0124,-0.0115,-0.0149,-0.0118,-0.0040, 0.0017, 2.4905
17-Jan-2019 10:27:08.813,-0.0055,-0.0017,-0.9836,-0.0009, 0.0002, 0.0114,-0.0115,-0.0192,-0.0107,-0.0040, 0.0017, 2.4905
17-Jan-2019 10:27:08.853,-0.0063,-0.0028,-0.9902,-0.0026, 0.0002, 0.0167,-0.0073,-0.0127,-0.0118,-0.0039, 0.0017, 2.4905
17-Jan-2019 10:27:08.893,-0.0064,-0.0011,-0.9866,-0.0027, 0.0002, 0.0158,-0.0063,-0.0085,-0.0118,-0.0039, 0.0018, 2.4906
17-Jan-2019 10:27:08.933,-0.0075,-0.0025,-0.9806,-0.0027,-0.0009, 0.0106,-0.0105,-0.0181,-0.0118,-0.0038, 0.0018, 2.4906
17-Jan-2019 10:27:08.974,-0.0078,-0.0038,-0.9832,-0.0052,-0.0011, 0.0123,-0.0104,-0.0213,-0.0129,-0.0039, 0.0018, 2.4906
17-Jan-2019 10:27:09.012,-0.0065,-0.0024,-0.9901,-0.0039, 0.0009, 0.0210,-0.0084,-0.0106,-0.0118,-0.0039, 0.0019, 2.4906
17-Jan-2019 10:27:09.053,-0.0074,-0.0016,-0.9837,-0.0047,-0.0011, 0.0180,-0.0073,-0.0085,-0.0118,-0.0039, 0.0019, 2.4906
17-Jan-2019 10:27:09.091,-0.0097,-0.0014,-0.9793,-0.0040,-0.0019, 0.0120,-0.0126,-0.0170,-0.0129,-0.0039, 0.0019, 2.4906
17-Jan-2019 10:27:09.131, 0.0041, 0.0025,-0.9808, 0.0067, 0.0050, 0.0183,-0.0104,-0.0181,-0.0139,-0.0039, 0.0019, 2.4906
17-Jan-2019 10:27:09.171,-0.0098,-0.0045,-0.9906,-0.0028,-0.0008, 0.0197,-0.0084,-0.0128,-0.0118,-0.0038, 0.0020, 2.4906
17-Jan-2019 10:27:09.210,-0.0101,-0.0016,-0.9840,-0.0074,-0.0016, 0.0163,-0.0084,-0.0085,-0.0107,-0.0038, 0.0020, 2.4906
17-Jan-2019 10:27:09.250,-0.0066,-0.0020,-0.9832, 0.0000,-0.0002, 0.0084,-0.0126,-0.0170,-0.0118,-0.0038, 0.0020, 2.4906
17-Jan-2019 10:27:09.290,-0.0056,-0.0005,-0.9874,-0.0023, 0.0008, 0.0143,-0.0126,-0.0224,-0.0129,-0.0038, 0.0020, 2.4906
17-Jan-2019 10:27:09.330,-0.0044,-0.0017,-0.9919,-0.0003, 0.0015, 0.0186,-0.0073,-0.0085,-0.0107,-0.0038, 0.0020, 2.4906
17-Jan-2019 10:27:09.369,-0.0081,-0.0014,-0.9841,-0.0040,-0.0016, 0.0133,-0.0095,-0.0074,-0.0118,-0.0037, 0.0020, 2.4906
17-Jan-2019 10:27:09.409,-0.0086,-0.0036,-0.9769,-0.0034,-0.0009, 0.0101,-0.0126,-0.0202,-0.0118,-0.0037, 0.0020, 2.4906
17-Jan-2019 10:27:09.449,-0.0089,-0.0030,-0.9908,-0.0049,-0.0018, 0.0226,-0.0126,-0.0192,-0.0108,-0.0037, 0.0020, 2.4906
17-Jan-2019 10:27:09.489,-0.0000, 0.0041,-0.9921, 0.0012, 0.0030, 0.0209,-0.0073,-0.0096,-0.0128,-0.0036, 0.0020, 2.4906
17-Jan-2019 10:27:09.528,-0.0084, 0.0009,-0.9803,-0.0027, 0.0016, 0.0112,-0.0084,-0.0096,-0.0128,-0.0036, 0.0020, 2.4906
17-Jan-2019 10:27:09.568,-0.0084,-0.0034,-0.9782,-0.0071,-0.0014, 0.0142,-0.0147,-0.0170,-0.0118,-0.0036, 0.0020, 2.4906
17-Jan-2019 10:27:09.608,-0.0052,-0.0005,-0.9911, 0.0031, 0.0030, 0.0207,-0.0126,-0.0224,-0.0118,-0.0036, 0.0019, 2.4906
17-Jan-2019 10:27:09.648,-0.0074,-0.0038,-0.9866,-0.0059,-0.0016, 0.0182,-0.0084,-0.0042,-0.0128,-0.0036, 0.0020, 2.4906
17-Jan-2019 10:27:09.687,-0.0023, 0.0001,-0.9797, 0.0006, 0.0027, 0.0142,-0.0063,-0.0053,-0.0118,-0.0036, 0.0019, 2.4906
17-Jan-2019 10:27:09.727,-0.0066,-0.0021,-0.9851,-0.0034,-0.0024, 0.0123,-0.0136,-0.0256,-0.0129,-0.0036, 0.0019, 2.4906
17-Jan-2019 10:27:09.766,-0.0061,-0.0028,-0.9889,-0.0022, 0.0022, 0.0171,-0.0115,-0.0245,-0.0118,-0.0036, 0.0019, 2.4906
17-Jan-2019 10:27:09.806,-0.0047, 0.0010,-0.9903,-0.0026,-0.0005, 0.0172,-0.0084,-0.0064,-0.0118,-0.0035, 0.0020, 2.4906
17-Jan-2019 10:27:09.846,-0.0070,-0.0029,-0.9810,-0.0013,-0.0040, 0.0080,-0.0074,-0.0032,-0.0107,-0.0035, 0.0020, 2.4906
17-Jan-2019 10:27:09.886,-0.0065,-0.0042,-0.9860,-0.0019, 0.0004, 0.0087,-0.0115,-0.0202,-0.0118,-0.0035, 0.0020, 2.4906
17-Jan-2019 10:27:09.925,-0.0055,-0.0017,-0.9954,-0.0024,-0.0005, 0.0191,-0.0136,-0.0202,-0.0118,-0.0034, 0.0020, 2.4906
17-Jan-2019 10:27:09.970,-0.0054,-0.0003,-0.9833,-0.0020, 0.0017, 0.0167,-0.0074,-0.0053,-0.0118,-0.0034, 0.0020, 2.4906
17-Jan-2019 10:27:10.005,-0.0093,-0.0005,-0.9789,-0.0033, 0.0012, 0.0111,-0.0094,-0.0149,-0.0118,-0.0034, 0.0021, 2.4906
17-Jan-2019 10:27:10.045,-0.0050,-0.0013,-0.9802,-0.0019,-0.0006, 0.0145,-0.0115,-0.0192,-0.0118,-0.0034, 0.0021, 2.4907
17-Jan-2019 10:27:10.084,-0.0043,-0.0024,-0.9873,-0.0038, 0.0015, 0.0269,-0.0073,-0.0064,-0.0118,-0.0034, 0.0021, 2.4906
17-Jan-2019 10:27:10.124,-0.0079,-0.0023,-0.9831,-0.0025,-0.0017, 0.0212,-0.0094,-0.0096,-0.0128,-0.0034, 0.0021, 2.4906
17-Jan-2019 10:27:10.164,-0.0065,-0.0009,-0.9764,-0.0011, 0.0018, 0.0096,-0.0126,-0.0181,-0.0118,-0.0033, 0.0021, 2.4907
17-Jan-2019 10:27:10.203,-0.0054,-0.0014,-0.9893,-0.0013, 0.0005, 0.0143,-0.0115,-0.0213,-0.0129,-0.0034, 0.0021, 2.4907
17-Jan-2019 10:27:10.243,-0.0079,-0.0037,-0.9911,-0.0073, 0.0004, 0.0161,-0.0094,-0.0128,-0.0118,-0.0033, 0.0021, 2.4907
17-Jan-2019 10:27:10.283,-0.0054,-0.0009,-0.9874,-0.0027,-0.0013, 0.0130,-0.0084,-0.0021,-0.0118,-0.0033, 0.0021, 2.4907
17-Jan-2019 10:27:10.323,-0.0069,-0.0016,-0.9804, 0.0006,-0.0005, 0.0014,-0.0147,-0.0277,-0.0108,-0.0033, 0.0021, 2.4907
17-Jan-2019 10:27:10.362,-0.0070,-0.0018,-0.9916,-0.0027, 0.0018, 0.0169,-0.0084,-0.0117,-0.0118,-0.0033, 0.0021, 2.4907
17-Jan-2019 10:27:10.402,-0.0046,-0.0028,-0.9892,-0.0041, 0.0018, 0.0215,-0.0094,-0.0138,-0.0097,-0.0033, 0.0021, 2.4907
17-Jan-2019 10:27:10.442,-0.0074,-0.0007,-0.9780,-0.0031, 0.0009, 0.0174,-0.0052,-0.0042,-0.0107,-0.0033, 0.0022, 2.4907
17-Jan-2019 10:27:10.482,-0.0068,-0.0018,-0.9745,-0.0035,-0.0027, 0.0134,-0.0136,-0.0266,-0.0129,-0.0033, 0.0022, 2.4907
17-Jan-2019 10:27:10.521,-0.0074,-0.0020,-0.9898,-0.0022, 0.0017, 0.0199,-0.0104,-0.0223,-0.0118,-0.0033, 0.0022, 2.4907
17-Jan-2019 10:27:10.561,-0.0042,-0.0029,-0.9926,-0.0050, 0.0012, 0.0233,-0.0042, 0.0011,-0.0117,-0.0034, 0.0022, 2.4907
17-Jan-2019 10:27:10.601,-0.0076,-0.0022,-0.9780, 0.0009, 0.0007, 0.0069,-0.0115,-0.0138,-0.0139,-0.0033, 0.0022, 2.4907
17-Jan-2019 10:27:10.641,-0.0071,-0.0011,-0.9836,-0.0036,-0.0013, 0.0078,-0.0105,-0.0181,-0.0118,-0.0034, 0.0022, 2.4907
17-Jan-2019 10:27:10.680,-0.0081,-0.0016,-0.9921,-0.0005,-0.0003, 0.0179,-0.0125,-0.0266,-0.0118,-0.0034, 0.0022, 2.4907
17-Jan-2019 10:27:10.721,-0.0028,-0.0026,-0.9896,-0.0063, 0.0022, 0.0232,-0.0053, 0.0054,-0.0128,-0.0034, 0.0022, 2.4907
17-Jan-2019 10:27:10.760,-0.0071,-0.0013,-0.9726,-0.0002, 0.0014, 0.0085,-0.0063,-0.0085,-0.0118,-0.0034, 0.0022, 2.4907
17-Jan-2019 10:27:10.800,-0.0066, 0.0009,-0.9831,-0.0013,-0.0010, 0.0081,-0.0136,-0.0287,-0.0118,-0.0034, 0.0022, 2.4907
17-Jan-2019 10:27:10.839,-0.0073,-0.0020,-0.9950,-0.0031,-0.0007, 0.0253,-0.0115,-0.0213,-0.0118,-0.0034, 0.0022, 2.4906
17-Jan-2019 10:27:10.879,-0.0051,-0.0034,-0.9863,-0.0078, 0.0024, 0.0255,-0.0063, 0.0032,-0.0117,-0.0035, 0.0022, 2.4906
17-Jan-2019 10:27:10.919,-0.0079,-0.0029,-0.9696,-0.0034, 0.0005, 0.0065,-0.0105,-0.0106,-0.0118,-0.0034, 0.0022, 2.4906
17-Jan-2019 10:27:10.959,-0.0077,-0.0006,-0.9863,-0.0006,-0.0012, 0.0026,-0.0136,-0.0309,-0.0118,-0.0034, 0.0022, 2.4906
17-Jan-2019 10:27:10.998,-0.0053,-0.0016,-1.0011,-0.0006,-0.0020, 0.0209,-0.0115,-0.0160,-0.0118,-0.0034, 0.0021, 2.4906
17-Jan-2019 10:27:11.038,-0.0040,-0.0038,-0.9888,-0.0032, 0.0004, 0.0218,-0.0063, 0.0022,-0.0107,-0.0034, 0.0022, 2.4906
17-Jan-2019 10:27:11.078,-0.0065,-0.0029,-0.9711,-0.0030, 0.0014, 0.0053,-0.0105,-0.0128,-0.0129,-0.0034, 0.0022, 2.4906
17-Jan-2019 10:27:11.117,-0.0061,-0.0002,-0.9799,-0.0010, 0.0014, 0.0066,-0.0125,-0.0255,-0.0118,-0.0034, 0.0022, 2.4906
17-Jan-2019 10:27:11.157,-0.0051, 0.0013,-0.9967,-0.0024,-0.0006, 0.0261,-0.0094,-0.0149,-0.0118,-0.0034, 0.0022, 2.4906
17-Jan-2019 10:27:11.197,-0.0045,-0.0010,-0.9866,-0.0030, 0.0002, 0.0264,-0.0063, 0.0011,-0.0117,-0.0034, 0.0022, 2.4906
17-Jan-2019 10:27:11.237,-0.0074,-0.0031,-0.9737,-0.0025, 0.0009, 0.0084,-0.0105,-0.0192,-0.0107,-0.0033, 0.0023, 2.4906
17-Jan-2019 10:27:11.277,-0.0081,-0.0027,-0.9830,-0.0027, 0.0015, 0.0108,-0.0136,-0.0234,-0.0118,-0.0033, 0.0023, 2.4907
17-Jan-2019 10:27:11.316,-0.0063,-0.0023,-0.9956,-0.0044,-0.0002, 0.0235,-0.0094,-0.0117,-0.0107,-0.0033, 0.0023, 2.4907
17-Jan-2019 10:27:11.356,-0.0063,-0.0015,-0.9865,-0.0045, 0.0011, 0.0146,-0.0074,-0.0032,-0.0107,-0.0032, 0.0023, 2.4907
17-Jan-2019 10:27:11.396,-0.0080,-0.0029,-0.9761,-0.0035, 0.0009, 0.0030,-0.0126,-0.0213,-0.0118,-0.0032, 0.0023, 2.4907
17-Jan-2019 10:27:11.436,-0.0082,-0.0047,-0.9872,-0.0036,-0.0013, 0.0132,-0.0115,-0.0213,-0.0118,-0.0033, 0.0023, 2.4908
17-Jan-2019 10:27:11.475,-0.0060,-0.0003,-0.9918,-0.0041, 0.0009, 0.0232,-0.0052,-0.0053,-0.0107,-0.0033, 0.0023, 2.4908
17-Jan-2019 10:27:11.515,-0.0076,-0.0019,-0.9820,-0.0037, 0.0003, 0.0144,-0.0094,-0.0128,-0.0107,-0.0033, 0.0023, 2.4908
17-Jan-2019 10:27:11.555,-0.0096,-0.0035,-0.9784,-0.0051,-0.0008, 0.0048,-0.0104,-0.0202,-0.0107,-0.0033, 0.0023, 2.4908
17-Jan-2019 10:27:11.594,-0.0065,-0.0031,-0.9874,-0.0033,-0.0004, 0.0151,-0.0104,-0.0213,-0.0107,-0.0034, 0.0023, 2.4908
17-Jan-2019 10:27:11.634,-0.0065,-0.0016,-0.9894,-0.0026,-0.0001, 0.0235,-0.0073,-0.0064,-0.0118,-0.0034, 0.0024, 2.4909
17-Jan-2019 10:27:11.674,-0.0054,-0.0030,-0.9809,-0.0025,-0.0010, 0.0150,-0.0105,-0.0128,-0.0097,-0.0035, 0.0024, 2.4909
17-Jan-2019 10:27:11.713,-0.0056,-0.0010,-0.9789,-0.0016, 0.0021, 0.0062,-0.0126,-0.0224,-0.0118,-0.0035, 0.0024, 2.4909
17-Jan-2019 10:27:11.753, 0.0037, 0.0014,-0.9885, 0.0155, 0.0061, 0.0227,-0.0116,-0.0138,-0.0107,-0.0035, 0.0024, 2.4910
17-Jan-2019 10:27:11.793,-0.0094,-0.0010,-0.9902,-0.0052, 0.0013, 0.0202,-0.0074,-0.0042,-0.0118,-0.0034, 0.0024, 2.4910
17-Jan-2019 10:27:11.833,-0.0055,-0.0046,-0.9793,-0.0055,-0.0029, 0.0110,-0.0094,-0.0106,-0.0107,-0.0033, 0.0023, 2.4910
17-Jan-2019 10:27:11.873,-0.0102,-0.0034,-0.9803,-0.0042, 0.0014, 0.0074,-0.0115,-0.0245,-0.0118,-0.0033, 0.0024, 2.4910
17-Jan-2019 10:27:11.912,-0.0019,-0.0024,-0.9895,-0.0012,-0.0003, 0.0205,-0.0073,-0.0149,-0.0118,-0.0034, 0.0024, 2.4910
17-Jan-2019 10:27:11.952,-0.0022, 0.0003,-0.9896, 0.0023, 0.0008, 0.0257,-0.0095,-0.0064,-0.0096,-0.0034, 0.0024, 2.4911
17-Jan-2019 10:27:11.992,-0.0077,-0.0032,-0.9754,-0.0045, 0.0003, 0.0090,-0.0105,-0.0128,-0.0129,-0.0033, 0.0024, 2.4911
17-Jan-2019 10:27:12.032,-0.0077,-0.0036,-0.9810,-0.0024, 0.0002, 0.0101,-0.0104,-0.0213,-0.0118,-0.0034, 0.0024, 2.4911
17-Jan-2019 10:27:12.071,-0.0127,-0.0046,-0.9912,-0.0098,-0.0029, 0.0196,-0.0073,-0.0128,-0.0096,-0.0034, 0.0024, 2.4912
17-Jan-2019 10:27:12.111,-0.0086,-0.0034,-0.9899,-0.0069,-0.0003, 0.0190,-0.0073,-0.0085,-0.0107,-0.0034, 0.0024, 2.4912
17-Jan-2019 10:27:12.151, 0.0050, 0.0028,-0.9760, 0.0153, 0.0068, 0.0069,-0.0094,-0.0149,-0.0118,-0.0034, 0.0024, 2.4912
17-Jan-2019 10:27:12.190,-0.0067,-0.0041,-0.9862,-0.0036, 0.0001, 0.0086,-0.0126,-0.0170,-0.0107,-0.0033, 0.0024, 2.4912
17-Jan-2019 10:27:12.230,-0.0055,-0.0002,-0.9920,-0.0032,-0.0010, 0.0204,-0.0094,-0.0106,-0.0107,-0.0032, 0.0023, 2.4912
17-Jan-2019 10:27:12.270,-0.0094,-0.0038,-0.9864,-0.0043,-0.0017, 0.0188,-0.0084,-0.0053,-0.0107,-0.0031, 0.0023, 2.4913
17-Jan-2019 10:27:12.310,-0.0087,-0.0014,-0.9792,-0.0046, 0.0008, 0.0078,-0.0136,-0.0224,-0.0118,-0.0032, 0.0023, 2.4913
17-Jan-2019 10:27:12.349,-0.0060,-0.0026,-0.9845,-0.0049,-0.0003, 0.0114,-0.0105,-0.0170,-0.0107,-0.0032, 0.0023, 2.4913
17-Jan-2019 10:27:12.389,-0.0084,-0.0028,-0.9946,-0.0042,-0.0016, 0.0225,-0.0105,-0.0128,-0.0107,-0.0032, 0.0023, 2.4913
17-Jan-2019 10:27:12.429,-0.0061,-0.0030,-0.9845,-0.0030,-0.0008, 0.0171,-0.0073,-0.0085,-0.0107,-0.0032, 0.0024, 2.4913
17-Jan-2019 10:27:12.469,-0.0084,-0.0023,-0.9767,-0.0054,-0.0003, 0.0081,-0.0105,-0.0160,-0.0118,-0.0031, 0.0023, 2.4914
17-Jan-2019 10:27:12.508, 0.0060, 0.0054,-0.9830, 0.0095, 0.0040, 0.0144,-0.0115,-0.0160,-0.0118,-0.0031, 0.0024, 2.4914
17-Jan-2019 10:27:12.548,-0.0087,-0.0052,-0.9938,-0.0043,-0.0032, 0.0236,-0.0084,-0.0149,-0.0118,-0.0031, 0.0024, 2.4914
17-Jan-2019 10:27:12.588,-0.0134,-0.0035,-0.9833,-0.0126,-0.0010, 0.0159,-0.0063,-0.0053,-0.0118,-0.0031, 0.0024, 2.4914
17-Jan-2019 10:27:12.628,-0.0051,-0.0034,-0.9794,-0.0026, 0.0010, 0.0085,-0.0105,-0.0181,-0.0118,-0.0031, 0.0024, 2.4914
17-Jan-2019 10:27:12.667,-0.0017, 0.0004,-0.9872, 0.0050, 0.0044, 0.0129,-0.0094,-0.0191,-0.0118,-0.0031, 0.0024, 2.4914
17-Jan-2019 10:27:12.707,-0.0095,-0.0007,-0.9921,-0.0116,-0.0016, 0.0214,-0.0063,-0.0053,-0.0118,-0.0031, 0.0024, 2.4914
17-Jan-2019 10:27:12.746,-0.0049,-0.0034,-0.9837, 0.0010,-0.0001, 0.0127,-0.0136,-0.0192,-0.0118,-0.0031, 0.0024, 2.4914
17-Jan-2019 10:27:12.786,-0.0061,-0.0032,-0.9771,-0.0044, 0.0019, 0.0055,-0.0073,-0.0149,-0.0128,-0.0031, 0.0025, 2.4914
17-Jan-2019 10:27:12.826,-0.0058,-0.0019,-0.9894,-0.0044,-0.0002, 0.0174,-0.0094,-0.0181,-0.0107,-0.0031, 0.0024, 2.4914
17-Jan-2019 10:27:12.866,-0.0045,-0.0004,-0.9879,-0.0005, 0.0010, 0.0199,-0.0105,-0.0117,-0.0097,-0.0031, 0.0025, 2.4914
17-Jan-2019 10:27:12.906,-0.0075,-0.0033,-0.9795,-0.0047,-0.0003, 0.0176,-0.0084,-0.0096,-0.0107,-0.0031, 0.0025, 2.4914
17-Jan-2019 10:27:12.945,-0.0036,-0.0008,-0.9805, 0.0008, 0.0017, 0.0083,-0.0125,-0.0277,-0.0108,-0.0031, 0.0025, 2.4915
17-Jan-2019 10:27:12.985,-0.0066,-0.0017,-0.9877,-0.0062, 0.0001, 0.0154,-0.0074,-0.0053,-0.0118,-0.0031, 0.0025, 2.4915
17-Jan-2019 10:27:13.025,-0.0062,-0.0023,-0.9939,-0.0014,-0.0017, 0.0193,-0.0115,-0.0223,-0.0129,-0.0031, 0.0025, 2.4914
17-Jan-2019 10:27:13.065,-0.0032,-0.0013,-0.9784,-0.0016, 0.0035, 0.0126,-0.0063,-0.0021,-0.0128,-0.0030, 0.0025, 2.4914
17-Jan-2019 10:27:13.104,-0.0079,-0.0034,-0.9866,-0.0032,-0.0015, 0.0089,-0.0136,-0.0266,-0.0118,-0.0031, 0.0025, 2.4914
17-Jan-2019 10:27:13.144,-0.0037, 0.0009,-0.9883,-0.0020, 0.0024, 0.0164,-0.0084,-0.0117,-0.0118,-0.0031, 0.0025, 2.4914
17-Jan-2019 10:27:13.184,-0.0086,-0.0033,-0.9921,-0.0027,-0.0025, 0.0232,-0.0105,-0.0149,-0.0118,-0.0031, 0.0025, 2.4914
17-Jan-2019 10:27:13.224,-0.0045,-0.0037,-0.9775,-0.0026, 0.0009, 0.0106,-0.0084,-0.0074,-0.0118,-0.0031, 0.0025, 2.4914
17-Jan-2019 10:27:13.263,-0.0051,-0.0031,-0.9450, 0.0002, 0.0012, 0.0291,-0.0135,-0.0341,-0.0129,-0.0031, 0.0025, 2.4913
17-Jan-2019 10:27:13.303,-0.0055,-0.0018,-0.9330,-0.0030, 0.0003, 0.0685,-0.0073,-0.0106,-0.0128,-0.0032, 0.0026, 2.4913
17-Jan-2019 10:27:13.343,-0.0049,-0.0002,-0.9308,-0.0007, 0.0003, 0.0813,-0.0105,-0.0106,-0.0118,-0.0032, 0.0026, 2.4913
17-Jan-2019 10:27:13.382,-0.0067,-0.0051,-0.9283,-0.0051, 0.0020, 0.0674,-0.0105,-0.0106,-0.0107,-0.0032, 0.0026, 2.4913
17-Jan-2019 10:27:13.422,-0.0045,-0.0029,-0.9438,-0.0014,-0.0000, 0.0532,-0.0105,-0.0181,-0.0118,-0.0032, 0.0026, 2.4912
17-Jan-2019 10:27:13.462,-0.0066, 0.0003,-0.9699,-0.0013, 0.0002, 0.0445,-0.0115,-0.0160,-0.0129,-0.0032, 0.0026, 2.4912
17-Jan-2019 10:27:13.502,-0.0064,-0.0039,-0.9736,-0.0026,-0.0009, 0.0309,-0.0084,-0.0117,-0.0128,-0.0032, 0.0025, 2.4912
17-Jan-2019 10:27:13.541,-0.0043,-0.0034,-0.9643,-0.0018, 0.0020, 0.0266,-0.0083,-0.0160,-0.0107,-0.0032, 0.0026, 2.4912
17-Jan-2019 10:27:13.581,-0.0065,-0.0035,-0.9536,-0.0007, 0.0040, 0.0370,-0.0094,-0.0191,-0.0129,-0.0032, 0.0026, 2.4912
17-Jan-2019 10:27:13.621,-0.0047,-0.0004,-0.9391,-0.0047, 0.0003, 0.0611,-0.0073,-0.0128,-0.0107,-0.0032, 0.0026, 2.4911
17-Jan-2019 10:27:13.660,-0.0023,-0.0010,-0.9176, 0.0017, 0.0021, 0.0788,-0.0115,-0.0138,-0.0129,-0.0033, 0.0027, 2.4911
17-Jan-2019 10:27:13.700,-0.0086,-0.0060,-0.9022,-0.0062,-0.0017, 0.0873,-0.0094,-0.0128,-0.0118,-0.0033, 0.0027, 2.4911
17-Jan-2019 10:27:13.740,-0.0022,-0.0009,-0.8998, 0.0003, 0.0009, 0.0980,-0.0094,-0.0138,-0.0118,-0.0033, 0.0027, 2.4911
17-Jan-2019 10:27:13.780,-0.0063,-0.0016,-0.9075,-0.0013,-0.0026, 0.1006,-0.0105,-0.0160,-0.0129,-0.0033, 0.0027, 2.4911
17-Jan-2019 10:27:13.819,-0.0056,-0.0019,-0.9144,-0.0039,-0.0000, 0.0894,-0.0094,-0.0128,-0.0107,-0.0033, 0.0026, 2.4911
17-Jan-2019 10:27:13.859,-0.0049,-0.0025,-0.9276,-0.0011, 0.0016, 0.0740,-0.0126,-0.0170,-0.0129,-0.0033, 0.0026, 2.4911
17-Jan-2019 10:27:13.899,-0.0052,-0.0058,-0.9282,-0.0003,-0.0008, 0.0720,-0.0094,-0.0117,-0.0118,-0.0034, 0.0026, 2.4911
17-Jan-2019 10:27:13.939,-0.0048,-0.0016,-0.9231,-0.0036, 0.0033, 0.0768,-0.0094,-0.0149,-0.0118,-0.0033, 0.0026, 2.4911
17-Jan-2019 10:27:13.978,-0.0062,-0.0030,-0.9093,-0.0018, 0.0004, 0.0889,-0.0115,-0.0192,-0.0107,-0.0034, 0.0027, 2.4911
17-Jan-2019 10:27:14.018,-0.0046,-0.0019,-0.9055,-0.0050, 0.0028, 0.0978,-0.0115,-0.0138,-0.0129,-0.0034, 0.0027, 2.4911
17-Jan-2019 10:27:14.058,-0.0042,-0.0037,-0.9343, 0.0021,-0.0036, 0.0736,-0.0094,-0.0106,-0.0128,-0.0034, 0.0026, 2.4911
17-Jan-2019 10:27:14.098,-0.0069, 0.0016,-0.9491,-0.0063, 0.0053, 0.0493,-0.0136,-0.0192,-0.0108,-0.0033, 0.0026, 2.4910
17-Jan-2019 10:27:14.137,-0.0056,-0.0063,-0.9643,-0.0006,-0.0052, 0.0445,-0.0126,-0.0160,-0.0107,-0.0033, 0.0025, 2.4911
17-Jan-2019 10:27:14.177,-0.0048,-0.0003,-0.9486,-0.0037, 0.0023, 0.0504,-0.0084,-0.0085,-0.0128,-0.0033, 0.0025, 2.4910
17-Jan-2019 10:27:14.217,-0.0054,-0.0052,-0.9307, 0.0015,-0.0008, 0.0618,-0.0094,-0.0160,-0.0118,-0.0033, 0.0026, 2.4910
17-Jan-2019 10:27:14.256,-0.0078, 0.0025,-0.9213,-0.0047, 0.0024, 0.0770,-0.0126,-0.0213,-0.0129,-0.0033, 0.0026, 2.4910
17-Jan-2019 10:27:14.296,-0.0015,-0.0083,-0.9126, 0.0020,-0.0008, 0.0915,-0.0084,-0.0138,-0.0129,-0.0034, 0.0025, 2.4910
17-Jan-2019 10:27:14.336,-0.0089, 0.0090,-0.8792,-0.0076,-0.0067, 0.1145,-0.0084,-0.0085,-0.0128,-0.0034, 0.0026, 2.4909
17-Jan-2019 10:27:14.376,-0.0020,-0.0148,-0.8988, 0.0058,-0.0074, 0.1105,-0.0094,-0.0160,-0.0118,-0.0034, 0.0026, 2.4909
17-Jan-2019 10:27:14.415,-0.0133, 0.0072,-0.9334,-0.0124, 0.0019, 0.0807,-0.0136,-0.0170,-0.0139,-0.0034, 0.0026, 2.4908
17-Jan-2019 10:27:14.455, 0.0048,-0.0053,-0.9702, 0.0049, 0.0004, 0.0407,-0.0116,-0.0074,-0.0139,-0.0033, 0.0025, 2.4907
17-Jan-2019 10:27:14.494,-0.0129, 0.0139,-0.9840,-0.0051, 0.0085, 0.0142,-0.0094,-0.0181,-0.0097,-0.0034, 0.0025, 2.4907
17-Jan-2019 10:27:14.534,-0.0006,-0.0114,-0.9879, 0.0008, 0.0039, 0.0152,-0.0115,-0.0160,-0.0107,-0.0034, 0.0025, 2.4908
17-Jan-2019 10:27:14.574,-0.0074,-0.0041,-0.9778,-0.0024,-0.0028, 0.0236,-0.0094,-0.0117,-0.0107,-0.0034, 0.0025, 2.4908
17-Jan-2019 10:27:14.614,-0.0022,-0.0039,-0.9606,-0.0035,-0.0001, 0.0355,-0.0094,-0.0138,-0.0118,-0.0034, 0.0025, 2.4908
17-Jan-2019 10:27:14.653,-0.0076,-0.0018,-0.9565,-0.0021, 0.0010, 0.0402,-0.0126,-0.0170,-0.0107,-0.0034, 0.0025, 2.4909
17-Jan-2019 10:27:14.693,-0.0038,-0.0032,-0.9710,-0.0053,-0.0008, 0.0420,-0.0105,-0.0106,-0.0118,-0.0034, 0.0025, 2.4909
17-Jan-2019 10:27:14.733,-0.0050,-0.0036,-0.9727,-0.0002,-0.0033, 0.0263,-0.0094,-0.0106,-0.0118,-0.0034, 0.0025, 2.4909
17-Jan-2019 10:27:14.773,-0.0094, 0.0000,-0.9809,-0.0046, 0.0011, 0.0151,-0.0094,-0.0170,-0.0118,-0.0034, 0.0025, 2.4908
17-Jan-2019 10:27:14.813,-0.0020,-0.0034,-0.9927, 0.0018,-0.0003, 0.0134,-0.0105,-0.0149,-0.0118,-0.0034, 0.0025, 2.4908
17-Jan-2019 10:27:14.852,-0.0058,-0.0011,-0.9922,-0.0035, 0.0004, 0.0111,-0.0094,-0.0117,-0.0107,-0.0034, 0.0025, 2.4908
17-Jan-2019 10:27:14.892,-0.0051,-0.0033,-0.9910,-0.0013,-0.0015, 0.0062,-0.0084,-0.0149,-0.0118,-0.0034, 0.0025, 2.4908
17-Jan-2019 10:27:14.932,-0.0042,-0.0024,-0.9901,-0.0021, 0.0031, 0.0096,-0.0105,-0.0160,-0.0107,-0.0034, 0.0025, 2.4908
17-Jan-2019 10:27:14.973,-0.0038,-0.0042,-0.9926,-0.0007,-0.0028, 0.0103,-0.0084,-0.0138,-0.0129,-0.0034, 0.0025, 2.4908
17-Jan-2019 10:27:15.011,-0.0072,-0.0001,-0.9866,-0.0056, 0.0009, 0.0102,-0.0084,-0.0117,-0.0128,-0.0034, 0.0026, 2.4907
17-Jan-2019 10:27:15.051,-0.0050,-0.0015,-0.9854,-0.0011, 0.0021, 0.0091,-0.0105,-0.0170,-0.0118,-0.0034, 0.0025, 2.4907
17-Jan-2019 10:27:15.091,-0.0057,-0.0041,-0.9883,-0.0008,-0.0033, 0.0135,-0.0094,-0.0138,-0.0129,-0.0035, 0.0025, 2.4907
17-Jan-2019 10:27:15.131,-0.0054,-0.0011,-0.9846,-0.0036, 0.0035, 0.0199,-0.0094,-0.0106,-0.0118,-0.0034, 0.0025, 2.4907
17-Jan-2019 10:27:15.170,-0.0055,-0.0020,-0.9817,-0.0003, 0.0003, 0.0138,-0.0094,-0.0149,-0.0107,-0.0034, 0.0025, 2.4907
17-Jan-2019 10:27:15.210,-0.0052,-0.0045,-0.9854,-0.0017,-0.0013, 0.0139,-0.0115,-0.0160,-0.0118,-0.0035, 0.0025, 2.4907
17-Jan-2019 10:27:15.250,-0.0046,-0.0021,-0.9836,-0.0024,-0.0001, 0.0207,-0.0084,-0.0127,-0.0128,-0.0035, 0.0025, 2.4907
17-Jan-2019 10:27:15.290,-0.0054,-0.0031,-0.9840,-0.0014,-0.0023, 0.0125,-0.0073,-0.0138,-0.0118,-0.0035, 0.0025, 2.4908
17-Jan-2019 10:27:15.329,-0.0062,-0.0027,-0.9831,-0.0027, 0.0001, 0.0129,-0.0094,-0.0181,-0.0129,-0.0035, 0.0025, 2.4908
17-Jan-2019 10:27:15.369,-0.0059,-0.0020,-0.9888,-0.0018, 0.0010, 0.0130,-0.0105,-0.0149,-0.0118,-0.0035, 0.0025, 2.4907
17-Jan-2019 10:27:15.409,-0.0056,-0.0028,-0.9863,-0.0009, 0.0006, 0.0124,-0.0084,-0.0106,-0.0107,-0.0035, 0.0026, 2.4908
17-Jan-2019 10:27:15.449,-0.0075,-0.0006,-0.9829,-0.0032, 0.0002, 0.0145,-0.0094,-0.0159,-0.0129,-0.0035, 0.0026, 2.4907
17-Jan-2019 10:27:15.488,-0.0040,-0.0015,-0.9855, 0.0000, 0.0021, 0.0151,-0.0105,-0.0149,-0.0118,-0.0035, 0.0026, 2.4908
17-Jan-2019 10:27:15.528,-0.0061,-0.0015,-0.9864,-0.0029,-0.0003, 0.0173,-0.0094,-0.0128,-0.0118,-0.0035, 0.0026, 2.4908
17-Jan-2019 10:27:15.568,-0.0057,-0.0027,-0.9857,-0.0022, 0.0010, 0.0154,-0.0084,-0.0128,-0.0107,-0.0035, 0.0026, 2.4908
17-Jan-2019 10:27:15.608,-0.0047,-0.0026,-0.9844,-0.0020,-0.0001, 0.0122,-0.0115,-0.0160,-0.0118,-0.0036, 0.0026, 2.4908
17-Jan-2019 10:27:15.647,-0.0070,-0.0029,-0.9869,-0.0013,-0.0011, 0.0160,-0.0094,-0.0149,-0.0129,-0.0036, 0.0026, 2.4907
17-Jan-2019 10:27:15.687,-0.0043,-0.0031,-0.9863,-0.0030, 0.0005, 0.0151,-0.0116,-0.0117,-0.0139,-0.0036, 0.0026, 2.4907
17-Jan-2019 10:27:15.727,-0.0060,-0.0015,-0.9838,-0.0002,-0.0003, 0.0115,-0.0105,-0.0149,-0.0118,-0.0036, 0.0026, 2.4907
17-Jan-2019 10:27:15.767,-0.0054,-0.0036,-0.9870,-0.0029,-0.0000, 0.0123,-0.0105,-0.0160,-0.0129,-0.0036, 0.0026, 2.4907
17-Jan-2019 10:27:15.806,-0.0041,-0.0010,-0.9881,-0.0009, 0.0008, 0.0179,-0.0094,-0.0128,-0.0118,-0.0036, 0.0026, 2.4907
17-Jan-2019 10:27:15.846,-0.0064,-0.0025,-0.9852,-0.0021,-0.0008, 0.0131,-0.0094,-0.0149,-0.0107,-0.0036, 0.0026, 2.4907
17-Jan-2019 10:27:15.886,-0.0054,-0.0017,-0.9832,-0.0016, 0.0011, 0.0137,-0.0105,-0.0192,-0.0118,-0.0036, 0.0026, 2.4907
17-Jan-2019 10:27:15.925,-0.0049,-0.0030,-0.9854,-0.0018, 0.0007, 0.0173,-0.0105,-0.0149,-0.0129,-0.0036, 0.0026, 2.4907
17-Jan-2019 10:27:15.965,-0.0058,-0.0031,-0.9837,-0.0015,-0.0002, 0.0173,-0.0084,-0.0128,-0.0118,-0.0037, 0.0026, 2.4907
17-Jan-2019 10:27:16.005,-0.0058,-0.0019,-0.9825,-0.0010,-0.0004, 0.0116,-0.0115,-0.0160,-0.0118,-0.0037, 0.0026, 2.4907
17-Jan-2019 10:27:16.045,-0.0056,-0.0002,-0.9879,-0.0001, 0.0004, 0.0167,-0.0104,-0.0202,-0.0107,-0.0037, 0.0026, 2.4907
17-Jan-2019 10:27:16.084,-0.0023,-0.0015,-0.9856,-0.0010, 0.0009, 0.0123,-0.0105,-0.0149,-0.0129,-0.0037, 0.0026, 2.4907
17-Jan-2019 10:27:16.124,-0.0068,-0.0016,-0.9869,-0.0013, 0.0005, 0.0138,-0.0094,-0.0106,-0.0128,-0.0037, 0.0026, 2.4907
17-Jan-2019 10:27:16.164,-0.0043,-0.0044,-0.9849,-0.0032,-0.0020, 0.0100,-0.0105,-0.0160,-0.0107,-0.0037, 0.0026, 2.4907
17-Jan-2019 10:27:16.203,-0.0054,-0.0016,-0.9856,-0.0013,-0.0002, 0.0156,-0.0105,-0.0128,-0.0129,-0.0037, 0.0026, 2.4906
17-Jan-2019 10:27:16.243,-0.0051,-0.0036,-0.9850,-0.0027, 0.0001, 0.0162,-0.0084,-0.0127,-0.0128,-0.0037, 0.0026, 2.4906
17-Jan-2019 10:27:16.283,-0.0081,-0.0018,-0.9822,-0.0018, 0.0007, 0.0140,-0.0094,-0.0149,-0.0118,-0.0037, 0.0026, 2.4906
17-Jan-2019 10:27:16.323,-0.0052,-0.0015,-0.9868,-0.0003, 0.0002, 0.0129,-0.0126,-0.0170,-0.0118,-0.0037, 0.0026, 2.4906
17-Jan-2019 10:27:16.362,-0.0051,-0.0019,-0.9883,-0.0017, 0.0024, 0.0164,-0.0094,-0.0128,-0.0129,-0.0037, 0.0026, 2.4906
17-Jan-2019 10:27:16.402,-0.0043,-0.0012,-0.9842, 0.0001,-0.0006, 0.0151,-0.0094,-0.0138,-0.0129,-0.0037, 0.0026, 2.4906
17-Jan-2019 10:27:16.442,-0.0052,-0.0026,-0.9849,-0.0031, 0.0001, 0.0152,-0.0094,-0.0181,-0.0118,-0.0038, 0.0026, 2.4906
17-Jan-2019 10:27:16.481,-0.0054,-0.0011,-0.9870,-0.0010,-0.0003, 0.0177,-0.0116,-0.0138,-0.0107,-0.0038, 0.0025, 2.4906
17-Jan-2019 10:27:16.521,-0.0055,-0.0031,-0.9838,-0.0013,-0.0007, 0.0144,-0.0094,-0.0096,-0.0128,-0.0038, 0.0025, 2.4906
17-Jan-2019 10:27:16.561,-0.0061,-0.0037,-0.9841,-0.0016, 0.0010, 0.0145,-0.0115,-0.0160,-0.0107,-0.0038, 0.0025, 2.4906
17-Jan-2019 10:27:16.600,-0.0059,-0.0028,-0.9874,-0.0003,-0.0014, 0.0141,-0.0094,-0.0170,-0.0118,-0.0038, 0.0025, 2.4906
17-Jan-2019 10:27:16.640,-0.0050,-0.0030,-0.9875,-0.0018, 0.0004, 0.0172,-0.0084,-0.0117,-0.0118,-0.0038, 0.0025, 2.4906
17-Jan-2019 10:27:16.680,-0.0065,-0.0023,-0.9805,-0.0001,-0.0004, 0.0157,-0.0094,-0.0160,-0.0118,-0.0038, 0.0025, 2.4906
17-Jan-2019 10:27:16.720,-0.0041,-0.0027,-0.9810,-0.0014, 0.0004, 0.0175,-0.0115,-0.0181,-0.0129,-0.0039, 0.0025, 2.4906
17-Jan-2019 10:27:16.760,-0.0060,-0.0023,-0.9897,-0.0014,-0.0019, 0.0169,-0.0105,-0.0128,-0.0129,-0.0039, 0.0024, 2.4906
17-Jan-2019 10:27:16.800,-0.0051,-0.0035,-0.9892,-0.0011,-0.0002, 0.0138,-0.0094,-0.0106,-0.0107,-0.0039, 0.0024, 2.4906
17-Jan-2019 10:27:16.839,-0.0077,-0.0015,-0.9857,-0.0016, 0.0008, 0.0087,-0.0126,-0.0160,-0.0129,-0.0039, 0.0024, 2.4906
17-Jan-2019 10:27:16.879,-0.0044,-0.0026,-0.9886,-0.0006, 0.0005, 0.0111,-0.0115,-0.0149,-0.0107,-0.0039, 0.0024, 2.4906
17-Jan-2019 10:27:16.919,-0.0062,-0.0020,-0.9900,-0.0022, 0.0013, 0.0136,-0.0084,-0.0117,-0.0118,-0.0039, 0.0024, 2.4905
17-Jan-2019 10:27:16.958,-0.0065,-0.0030,-0.9862,-0.0014,-0.0011, 0.0124,-0.0094,-0.0138,-0.0118,-0.0040, 0.0024, 2.4905
17-Jan-2019 10:27:16.998,-0.0060,-0.0021,-0.9826,-0.0022,-0.0004, 0.0140,-0.0115,-0.0170,-0.0129,-0.0040, 0.0024, 2.4905
17-Jan-2019 10:27:17.038,-0.0038,-0.0036,-0.9619,-0.0002, 0.0007, 0.0326,-0.0084,-0.0138,-0.0118,-0.0040, 0.0024, 2.4905
17-Jan-2019 10:27:17.078,-0.0080,-0.0004,-0.9229,-0.0038, 0.0010, 0.0660,-0.0084,-0.0117,-0.0118,-0.0040, 0.0024, 2.4905
17-Jan-2019 10:27:17.117,-0.0035,-0.0045,-0.9036, 0.0003,-0.0025, 0.0907,-0.0105,-0.0138,-0.0118,-0.0040, 0.0024, 2.4905
17-Jan-2019 10:27:17.157,-0.0079, 0.0000,-0.9123,-0.0020, 0.0005, 0.0881,-0.0115,-0.0202,-0.0118,-0.0041, 0.0024, 2.4905
17-Jan-2019 10:27:17.197,-0.0037,-0.0003,-0.9215,-0.0012, 0.0034, 0.0815,-0.0094,-0.0128,-0.0107,-0.0041, 0.0024, 2.4905
17-Jan-2019 10:27:17.237,-0.0075,-0.0033,-0.9728,-0.0049,-0.0031, 0.0310,-0.0063,-0.0074,-0.0118,-0.0041, 0.0024, 2.4905
17-Jan-2019 10:27:17.277,-0.0042,-0.0054,-0.9717, 0.0022, 0.0010, 0.0214,-0.0115,-0.0170,-0.0118,-0.0041, 0.0024, 2.4905
17-Jan-2019 10:27:17.316,-0.0026,-0.0005,-0.9907, 0.0019, 0.0008, 0.0124,-0.0105,-0.0149,-0.0107,-0.0041, 0.0024, 2.4905
17-Jan-2019 10:27:17.357,-0.0109,-0.0049,-0.9990,-0.0050,-0.0001, 0.0045,-0.0116,-0.0138,-0.0118,-0.0041, 0.0023, 2.4905
17-Jan-2019 10:27:17.395,-0.0044, 0.0005,-1.0020, 0.0036, 0.0021,-0.0024,-0.0105,-0.0160,-0.0118,-0.0041, 0.0023, 2.4905
17-Jan-2019 10:27:17.435,-0.0080,-0.0059,-0.9890,-0.0019,-0.0009, 0.0168,-0.0084,-0.0128,-0.0107,-0.0042, 0.0023, 2.4905
17-Jan-2019 10:27:17.475,-0.0011,-0.0018,-0.9843, 0.0002, 0.0001, 0.0196,-0.0116,-0.0138,-0.0097,-0.0042, 0.0023, 2.4905
17-Jan-2019 10:27:17.515,-0.0072,-0.0006,-0.9814,-0.0004, 0.0018, 0.0157,-0.0105,-0.0149,-0.0129,-0.0042, 0.0023, 2.4905
17-Jan-2019 10:27:17.554,-0.0092,-0.0016,-0.9841,-0.0035,-0.0003, 0.0136,-0.0094,-0.0149,-0.0118,-0.0042, 0.0023, 2.4905
17-Jan-2019 10:27:17.595,-0.0065,-0.0035,-0.9859, 0.0027,-0.0014, 0.0143,-0.0116,-0.0128,-0.0118,-0.0042, 0.0023, 2.4905
17-Jan-2019 10:27:17.634,-0.0088,-0.0030,-0.9823,-0.0014,-0.0016, 0.0134,-0.0094,-0.0128,-0.0118,-0.0042, 0.0022, 2.4905
17-Jan-2019 10:27:17.673,-0.0042,-0.0049,-0.9836, 0.0016, 0.0014, 0.0139,-0.0094,-0.0170,-0.0107,-0.0042, 0.0022, 2.4905
17-Jan-2019 10:27:17.713,-0.0089,-0.0024,-0.9853,-0.0012, 0.0002, 0.0148,-0.0094,-0.0138,-0.0107,-0.0042, 0.0022, 2.4906
17-Jan-2019 10:27:17.753,-0.0023,-0.0028,-0.9864, 0.0003,-0.0001, 0.0133,-0.0116,-0.0138,-0.0118,-0.0042, 0.0022, 2.4906
17-Jan-2019 10:27:17.793,-0.0080,-0.0027,-0.9849,-0.0031,-0.0015, 0.0147,-0.0094,-0.0138,-0.0097,-0.0042, 0.0022, 2.4906
17-Jan-2019 10:27:17.832,-0.0026,-0.0018,-0.9834,-0.0004, 0.0011, 0.0154,-0.0105,-0.0138,-0.0107,-0.0042, 0.0022, 2.4905
17-Jan-2019 10:27:17.872,-0.0084,-0.0027,-0.9856,-0.0032, 0.0001, 0.0149,-0.0115,-0.0170,-0.0129,-0.0042, 0.0022, 2.4906
17-Jan-2019 10:27:17.912,-0.0058,-0.0033,-0.9859,-0.0011,-0.0012, 0.0160,-0.0105,-0.0149,-0.0107,-0.0042, 0.0022, 2.4906
17-Jan-2019 10:27:17.952,-0.0089,-0.0031,-0.9844,-0.0015, 0.0003, 0.0140,-0.0105,-0.0160,-0.0118,-0.0042, 0.0022, 2.4906
17-Jan-2019 10:27:17.992,-0.0043,-0.0009,-0.9839,-0.0006, 0.0018, 0.0146,-0.0105,-0.0128,-0.0118,-0.0042, 0.0022, 2.4906
17-Jan-2019 10:27:18.031,-0.0062,-0.0031,-0.9856,-0.0009,-0.0020, 0.0141,-0.0105,-0.0160,-0.0107,-0.0043, 0.0022, 2.4906
17-Jan-2019 10:27:18.071,-0.0040,-0.0017,-0.9857,-0.0010, 0.0010, 0.0136,-0.0083,-0.0159,-0.0118,-0.0043, 0.0022, 2.4906
17-Jan-2019 10:27:18.111,-0.0079,-0.0028,-0.9857,-0.0021,-0.0012, 0.0137,-0.0094,-0.0128,-0.0129,-0.0043, 0.0022, 2.4906
17-Jan-2019 10:27:18.150,-0.0029,-0.0040,-0.9867,-0.0019, 0.0007, 0.0165,-0.0115,-0.0160,-0.0129,-0.0043, 0.0022, 2.4906
17-Jan-2019 10:27:18.190,-0.0071,-0.0027,-0.9870,-0.0024,-0.0007, 0.0165,-0.0105,-0.0138,-0.0118,-0.0043, 0.0021, 2.4905
17-Jan-2019 10:27:18.230,-0.0057,-0.0045,-0.9851,-0.0019,-0.0027, 0.0146,-0.0105,-0.0138,-0.0118,-0.0043, 0.0022, 2.4905
17-Jan-2019 10:27:18.270,-0.0077,-0.0006,-0.9840,-0.0018, 0.0017, 0.0151,-0.0094,-0.0149,-0.0107,-0.0043, 0.0021, 2.4905
17-Jan-2019 10:27:18.309,-0.0043,-0.0044,-0.9851, 0.0002,-0.0012, 0.0146,-0.0105,-0.0128,-0.0107,-0.0043, 0.0021, 2.4905
17-Jan-2019 10:27:18.349,-0.0060,-0.0014,-0.9836,-0.0017,-0.0010, 0.0141,-0.0105,-0.0160,-0.0129,-0.0043, 0.0021, 2.4905
17-Jan-2019 10:27:18.389,-0.0061,-0.0027,-0.9869, 0.0003, 0.0019, 0.0149,-0.0094,-0.0149,-0.0107,-0.0043, 0.0021, 2.4905
17-Jan-2019 10:27:18.429,-0.0061,-0.0030,-0.9864,-0.0027,-0.0005, 0.0138,-0.0115,-0.0160,-0.0118,-0.0043, 0.0021, 2.4906
17-Jan-2019 10:27:18.468,-0.0052,-0.0015,-0.9879, 0.0004,-0.0034, 0.0128,-0.0115,-0.0170,-0.0118,-0.0043, 0.0021, 2.4906
17-Jan-2019 10:27:18.508,-0.0035,-0.0036,-0.9843,-0.0001, 0.0014, 0.0109,-0.0105,-0.0138,-0.0129,-0.0043, 0.0021, 2.4905
17-Jan-2019 10:27:18.548,-0.0115,-0.0014,-0.9855,-0.0050,-0.0029, 0.0154,-0.0105,-0.0149,-0.0118,-0.0043, 0.0021, 2.4905
17-Jan-2019 10:27:18.587, 0.0000,-0.0048,-0.9920, 0.0064,-0.0012, 0.0178,-0.0116,-0.0128,-0.0118,-0.0044, 0.0021, 2.4906
17-Jan-2019 10:27:18.627,-0.0126,-0.0016,-0.9868,-0.0075, 0.0007, 0.0168,-0.0105,-0.0160,-0.0118,-0.0044, 0.0020, 2.4906
17-Jan-2019 10:27:18.667,-0.0012,-0.0042,-0.9803, 0.0026,-0.0017, 0.0115,-0.0094,-0.0128,-0.0118,-0.0044, 0.0021, 2.4905
17-Jan-2019 10:27:18.706,-0.0090,-0.0011,-0.9905,-0.0043, 0.0022, 0.0185,-0.0094,-0.0138,-0.0129,-0.0044, 0.0021, 2.4905
17-Jan-2019 10:27:18.746,-0.0032,-0.0025,-0.9820, 0.0012,-0.0031, 0.0116,-0.0094,-0.0138,-0.0118,-0.0044, 0.0021, 2.4905
17-Jan-2019 10:27:18.786,-0.0072,-0.0001,-0.9843,-0.0016, 0.0023, 0.0181,-0.0116,-0.0138,-0.0118,-0.0043, 0.0021, 2.4905
17-Jan-2019 10:27:18.826,-0.0057,-0.0007,-0.9843,-0.0020,-0.0027, 0.0122,-0.0094,-0.0149,-0.0107,-0.0043, 0.0021, 2.4905
17-Jan-2019 10:27:18.866,-0.0058,-0.0026,-0.9862,-0.0009, 0.0017, 0.0175,-0.0094,-0.0149,-0.0118,-0.0043, 0.0021, 2.4906
17-Jan-2019 10:27:18.906,-0.0053,-0.0044,-0.9848,-0.0008,-0.0017, 0.0157,-0.0084,-0.0127,-0.0128,-0.0043, 0.0021, 2.4906
17-Jan-2019 10:27:18.945,-0.0062,-0.0013,-0.9834,-0.0017, 0.0009, 0.0119,-0.0115,-0.0149,-0.0118,-0.0043, 0.0021, 2.4905
17-Jan-2019 10:27:18.985,-0.0082,-0.0014,-0.9880,-0.0004,-0.0019, 0.0156,-0.0105,-0.0138,-0.0129,-0.0043, 0.0021, 2.4906
17-Jan-2019 10:27:19.024,-0.0028,-0.0016,-0.9828, 0.0007, 0.0010, 0.0144,-0.0094,-0.0138,-0.0107,-0.0042, 0.0021, 2.4906
17-Jan-2019 10:27:19.064,-0.0040,-0.0058,-0.9848, 0.0017,-0.0037, 0.0159,-0.0115,-0.0160,-0.0129,-0.0042, 0.0021, 2.4906
17-Jan-2019 10:27:19.104,-0.0056,-0.0029,-0.9884,-0.0066,-0.0015, 0.0132,-0.0105,-0.0128,-0.0118,-0.0042, 0.0021, 2.4906
17-Jan-2019 10:27:19.144,-0.0054,-0.0016,-0.9855,-0.0022,-0.0009, 0.0137,-0.0105,-0.0128,-0.0118,-0.0042, 0.0021, 2.4906
17-Jan-2019 10:27:19.184,-0.0057,-0.0038,-0.9818, 0.0000, 0.0021, 0.0157,-0.0105,-0.0160,-0.0107,-0.0042, 0.0021, 2.4906
17-Jan-2019 10:27:19.223,-0.0071,-0.0016,-0.9867, 0.0003, 0.0005, 0.0180,-0.0084,-0.0149,-0.0107,-0.0042, 0.0021, 2.4907
17-Jan-2019 10:27:19.262,-0.0047,-0.0026,-0.9852,-0.0029, 0.0005, 0.0104,-0.0105,-0.0138,-0.0129,-0.0042, 0.0020, 2.4907
17-Jan-2019 10:27:19.302,-0.0056,-0.0017,-0.9875,-0.0009, 0.0005, 0.0171,-0.0062,-0.0159,-0.0128,-0.0042, 0.0020, 2.4906
17-Jan-2019 10:27:19.342,-0.0051,-0.0052,-0.9871,-0.0000,-0.0028, 0.0130,-0.0115,-0.0170,-0.0107,-0.0042, 0.0020, 2.4906
17-Jan-2019 10:27:19.382,-0.0049,-0.0012,-0.9848,-0.0047, 0.0003, 0.0149,-0.0126,-0.0149,-0.0118,-0.0042, 0.0021, 2.4906
17-Jan-2019 10:27:19.421,-0.0078,-0.0020,-0.9856,-0.0032,-0.0011, 0.0128,-0.0105,-0.0117,-0.0129,-0.0043, 0.0021, 2.4906
17-Jan-2019 10:27:19.461,-0.0061,-0.0033,-0.9872,-0.0011,-0.0017, 0.0179,-0.0073,-0.0138,-0.0107,-0.0043, 0.0021, 2.4906
17-Jan-2019 10:27:19.501,-0.0060,-0.0034,-0.9856,-0.0009, 0.0009, 0.0156,-0.0105,-0.0149,-0.0118,-0.0043, 0.0021, 2.4906
17-Jan-2019 10:27:19.541,-0.0051,-0.0043,-0.9876,-0.0012,-0.0033, 0.0145,-0.0115,-0.0160,-0.0129,-0.0043, 0.0021, 2.4906
17-Jan-2019 10:27:19.581,-0.0029,-0.0023,-0.9867,-0.0012, 0.0004, 0.0152,-0.0105,-0.0138,-0.0129,-0.0043, 0.0021, 2.4906
17-Jan-2019 10:27:19.620,-0.0065, 0.0004,-0.9844,-0.0014,-0.0000, 0.0133,-0.0094,-0.0149,-0.0118,-0.0043, 0.0021, 2.4906
17-Jan-2019 10:27:19.660,-0.0045,-0.0004,-0.9888,-0.0026, 0.0003, 0.0160,-0.0105,-0.0149,-0.0118,-0.0043, 0.0022, 2.4906
17-Jan-2019 10:27:19.700,-0.0055,-0.0037,-0.9837, 0.0006,-0.0033, 0.0123,-0.0105,-0.0128,-0.0118,-0.0043, 0.0022, 2.4905
17-Jan-2019 10:27:19.740,-0.0048,-0.0011,-0.9850,-0.0028, 0.0012, 0.0188,-0.0115,-0.0149,-0.0129,-0.0043, 0.0021, 2.4905
17-Jan-2019 10:27:19.779,-0.0054,-0.0048,-0.9855,-0.0003, 0.0006, 0.0121,-0.0126,-0.0149,-0.0129,-0.0043, 0.0021, 2.4905
17-Jan-2019 10:27:19.819,-0.0064,-0.0027,-0.9867,-0.0018, 0.0008, 0.0177,-0.0105,-0.0117,-0.0118,-0.0043, 0.0021, 2.4905
17-Jan-2019 10:27:19.859,-0.0052,-0.0015,-0.9853,-0.0009, 0.0004, 0.0135,-0.0084,-0.0149,-0.0107,-0.0043, 0.0021, 2.4905
17-Jan-2019 10:27:19.898,-0.0061,-0.0022,-0.9842,-0.0018, 0.0002, 0.0146,-0.0084,-0.0138,-0.0118,-0.0043, 0.0022, 2.4905
17-Jan-2019 10:27:19.938,-0.0068,-0.0001,-0.9855,-0.0021,-0.0018, 0.0120,-0.0094,-0.0117,-0.0118,-0.0042, 0.0022, 2.4905
17-Jan-2019 10:27:19.978,-0.0055,-0.0039,-0.9846,-0.0011,-0.0015, 0.0134,-0.0074,-0.0053,-0.0118,-0.0039, 0.0023, 2.4905
17-Jan-2019 10:27:20.018,-0.0037,-0.0004,-0.9880,-0.0005,-0.0004, 0.0149,-0.0094,-0.0117,-0.0107,-0.0037, 0.0023, 2.4905
17-Jan-2019 10:27:20.058,-0.0037,-0.0037,-0.9846,-0.0014, 0.0011, 0.0128,-0.0094,-0.0106,-0.0107,-0.0035, 0.0024, 2.4905
17-Jan-2019 10:27:20.098,-0.0063,-0.0028,-0.9865,-0.0027, 0.0002, 0.0130,-0.0053, 0.0011,-0.0128,-0.0031, 0.0025, 2.4905
17-Jan-2019 10:27:20.138,-0.0121,-0.0026,-0.9772,-0.0073, 0.0003, 0.0193, 0.0743, 0.3602,-0.0139, 0.0012, 0.0035, 2.4905
17-Jan-2019 10:27:20.179,-0.0056, 0.0012,-0.9693,-0.0274, 0.0104, 0.0230,-0.0344,-0.0981,-0.0099,-0.0026, 0.0025, 2.4905
17-Jan-2019 10:27:20.216,-0.0012,-0.0045,-0.9873, 0.0001,-0.0035, 0.0115,-0.0083,-0.0181,-0.0107,-0.0030, 0.0025, 2.4905
17-Jan-2019 10:27:20.256,-0.0050,-0.0001,-0.9885,-0.0003, 0.0022, 0.0101,-0.0240,-0.0575,-0.0109,-0.0039, 0.0023, 2.4906
