Timestamp,accelX(g),accelY(g),accelZ(g),accelUserX(g),accelUserY(g),accelUserZ(g),gyroX(rad/s),gyroY(rad/s),gyroZ(rad/s),Roll(rads),Pitch(rads),Yaw(rads)
17-Jan-2019 10:28:59.398,-0.0023,-0.0115,-1.0074, 0.0075, 0.0053, 0.0147,-0.0146,-0.0288,-0.0118,-0.0197, 0.0134,-1.2705
17-Jan-2019 10:28:59.438,-0.0061,-0.0092,-0.9880, 0.0079, 0.0060, 0.0268, 0.0031, 0.0192,-0.0117,-0.0197, 0.0134,-1.2705
17-Jan-2019 10:28:59.477,-0.0103,-0.0079,-0.9808, 0.0074, 0.0060, 0.0238, 0.0021, 0.0150,-0.0127,-0.0198, 0.0133,-1.2705
17-Jan-2019 10:28:59.517,-0.0104,-0.0081,-0.9825, 0.0087, 0.0058, 0.0206,-0.0032, 0.0032,-0.0117,-0.0199, 0.0133,-1.2704
17-Jan-2019 10:28:59.557,-0.0120,-0.0080,-0.9835, 0.0081, 0.0057, 0.0166,-0.0052,-0.0053,-0.0118,-0.0199, 0.0133,-1.2704
17-Jan-2019 10:28:59.596,-0.0103,-0.0094,-0.9815, 0.0100, 0.0057, 0.0157,-0.0073,-0.0074,-0.0107,-0.0199, 0.0132,-1.2704
17-Jan-2019 10:28:59.636,-0.0090,-0.0091,-0.9849, 0.0107, 0.0055, 0.0152,-0.0062,-0.0106,-0.0128,-0.0199, 0.0132,-1.2704
17-Jan-2019 10:28:59.676,-0.0095,-0.0076,-0.9854, 0.0118, 0.0037, 0.0140,-0.0105,-0.0106,-0.0118,-0.0199, 0.0132,-1.2704
17-Jan-2019 10:28:59.716,-0.0089,-0.0082,-0.9848, 0.0101, 0.0049, 0.0164,-0.0115,-0.0138,-0.0129,-0.0198, 0.0132,-1.2704
17-Jan-2019 10:28:59.755,-0.0102,-0.0078,-0.9846, 0.0103, 0.0046, 0.0134,-0.0105,-0.0149,-0.0118,-0.0198, 0.0132,-1.2704
17-Jan-2019 10:28:59.795,-0.0084,-0.0081,-0.9839, 0.0109, 0.0047, 0.0141,-0.0105,-0.0149,-0.0118,-0.0198, 0.0132,-1.2704
17-Jan-2019 10:28:59.835,-0.0086,-0.0081,-0.9859, 0.0125, 0.0048, 0.0145,-0.0094,-0.0149,-0.0129,-0.0198, 0.0132,-1.2704
17-Jan-2019 10:28:59.875,-0.0093,-0.0100,-0.9835, 0.0115, 0.0053, 0.0146,-0.0105,-0.0128,-0.0129,-0.0198, 0.0132,-1.2704
17-Jan-2019 10:28:59.914,-0.0091,-0.0078,-0.9848, 0.0100, 0.0072, 0.0132,-0.0116,-0.0128,-0.0129,-0.0198, 0.0131,-1.2704
17-Jan-2019 10:28:59.954,-0.0086,-0.0054,-0.9860, 0.0112, 0.0057, 0.0151,-0.0115,-0.0160,-0.0129,-0.0198, 0.0131,-1.2704
17-Jan-2019 10:28:59.994,-0.0072,-0.0084,-0.9857, 0.0103, 0.0032, 0.0148,-0.0094,-0.0138,-0.0097,-0.0198, 0.0131,-1.2704
17-Jan-2019 10:29:00.034,-0.0114,-0.0078,-0.9853, 0.0107, 0.0057, 0.0133,-0.0115,-0.0160,-0.0118,-0.0198, 0.0130,-1.2704
17-Jan-2019 10:29:00.073,-0.0082,-0.0081,-0.9847, 0.0110, 0.0041, 0.0154,-0.0116,-0.0128,-0.0129,-0.0198, 0.0130,-1.2704
17-Jan-2019 10:29:00.113,-0.0067,-0.0081,-0.9841, 0.0110, 0.0039, 0.0136,-0.0094,-0.0117,-0.0139,-0.0197, 0.0130,-1.2704
17-Jan-2019 10:29:00.153,-0.0089,-0.0097,-0.9861, 0.0117, 0.0024, 0.0142,-0.0115,-0.0149,-0.0129,-0.0197, 0.0130,-1.2704
17-Jan-2019 10:29:00.193,-0.0090,-0.0067,-0.9848, 0.0079, 0.0068, 0.0155,-0.0094,-0.0117,-0.0118,-0.0197, 0.0129,-1.2704
17-Jan-2019 10:29:00.234,-0.0095,-0.0088,-0.9847, 0.0118, 0.0054, 0.0146,-0.0094,-0.0138,-0.0129,-0.0197, 0.0129,-1.2704
17-Jan-2019 10:29:00.273,-0.0066,-0.0077,-0.9858, 0.0114, 0.0067, 0.0146,-0.0094,-0.0138,-0.0118,-0.0197, 0.0129,-1.2703
17-Jan-2019 10:29:00.312,-0.0098,-0.0085,-0.9860, 0.0107, 0.0052, 0.0148,-0.0116,-0.0128,-0.0118,-0.0196, 0.0129,-1.2703
17-Jan-2019 10:29:00.352,-0.0092,-0.0087,-0.9854, 0.0086, 0.0044, 0.0145,-0.0105,-0.0128,-0.0139,-0.0196, 0.0129,-1.2703
17-Jan-2019 10:29:00.392,-0.0096,-0.0079,-0.9834, 0.0099, 0.0051, 0.0165,-0.0094,-0.0128,-0.0129,-0.0196, 0.0129,-1.2703
17-Jan-2019 10:29:00.432,-0.0074,-0.0098,-0.9852, 0.0124, 0.0040, 0.0139,-0.0094,-0.0149,-0.0107,-0.0196, 0.0129,-1.2703
17-Jan-2019 10:29:00.471,-0.0094,-0.0078,-0.9848, 0.0096, 0.0062, 0.0145,-0.0105,-0.0149,-0.0118,-0.0196, 0.0129,-1.2703
17-Jan-2019 10:29:00.510,-0.0086,-0.0085,-0.9854, 0.0120, 0.0031, 0.0149,-0.0094,-0.0138,-0.0118,-0.0196, 0.0129,-1.2703
17-Jan-2019 10:29:00.550,-0.0099,-0.0078,-0.9854, 0.0094, 0.0061, 0.0139,-0.0094,-0.0138,-0.0118,-0.0196, 0.0129,-1.2703
17-Jan-2019 10:29:00.590,-0.0102,-0.0079,-0.9846, 0.0090, 0.0042, 0.0149,-0.0094,-0.0138,-0.0129,-0.0195, 0.0129,-1.2703
17-Jan-2019 10:29:00.630,-0.0082,-0.0088,-0.9860, 0.0115, 0.0048, 0.0136,-0.0115,-0.0149,-0.0107,-0.0195, 0.0129,-1.2703
17-Jan-2019 10:29:00.670,-0.0099,-0.0076,-0.9859, 0.0092, 0.0052, 0.0141,-0.0094,-0.0128,-0.0129,-0.0195, 0.0129,-1.2703
17-Jan-2019 10:29:00.709,-0.0087,-0.0085,-0.9854, 0.0139, 0.0045, 0.0145,-0.0105,-0.0138,-0.0118,-0.0195, 0.0129,-1.2703
17-Jan-2019 10:29:00.749,-0.0092,-0.0098,-0.9852, 0.0101, 0.0045, 0.0142,-0.0094,-0.0149,-0.0118,-0.0195, 0.0129,-1.2703
17-Jan-2019 10:29:00.790,-0.0093,-0.0080,-0.9860, 0.0118, 0.0053, 0.0138,-0.0116,-0.0128,-0.0129,-0.0195, 0.0129,-1.2703
17-Jan-2019 10:29:00.829,-0.0096,-0.0087,-0.9855, 0.0094, 0.0046, 0.0151,-0.0105,-0.0128,-0.0118,-0.0195, 0.0128,-1.2703
17-Jan-2019 10:29:00.868,-0.0094,-0.0068,-0.9857, 0.0107, 0.0041, 0.0140,-0.0094,-0.0138,-0.0129,-0.0195, 0.0129,-1.2703
17-Jan-2019 10:29:00.910,-0.0083,-0.0102,-0.9852, 0.0117, 0.0037, 0.0157,-0.0094,-0.0170,-0.0118,-0.0195, 0.0129,-1.2703
17-Jan-2019 10:29:00.948,-0.0097,-0.0080,-0.9862, 0.0103, 0.0041, 0.0132,-0.0094,-0.0138,-0.0129,-0.0195, 0.0129,-1.2703
17-Jan-2019 10:29:00.989,-0.0077,-0.0071,-0.9857, 0.0113, 0.0058, 0.0156,-0.0115,-0.0160,-0.0129,-0.0195, 0.0129,-1.2703
17-Jan-2019 10:29:01.028,-0.0095,-0.0084,-0.9852, 0.0087, 0.0048, 0.0149,-0.0116,-0.0128,-0.0118,-0.0195, 0.0129,-1.2703
17-Jan-2019 10:29:01.068,-0.0086,-0.0076,-0.9856, 0.0115, 0.0047, 0.0146,-0.0084,-0.0138,-0.0107,-0.0195, 0.0129,-1.2703
17-Jan-2019 10:29:01.107,-0.0098,-0.0092,-0.9862, 0.0105, 0.0048, 0.0140,-0.0105,-0.0149,-0.0129,-0.0195, 0.0129,-1.2703
17-Jan-2019 10:29:01.147,-0.0078,-0.0071,-0.9847, 0.0118, 0.0042, 0.0137,-0.0094,-0.0128,-0.0118,-0.0195, 0.0129,-1.2703
17-Jan-2019 10:29:01.186,-0.0077,-0.0099,-0.9859, 0.0104, 0.0031, 0.0145,-0.0084,-0.0138,-0.0129,-0.0195, 0.0130,-1.2703
17-Jan-2019 10:29:01.227,-0.0094,-0.0076,-0.9852, 0.0110, 0.0046, 0.0164,-0.0105,-0.0138,-0.0129,-0.0195, 0.0130,-1.2703
17-Jan-2019 10:29:01.266,-0.0090,-0.0088,-0.9848, 0.0094, 0.0062, 0.0153,-0.0094,-0.0117,-0.0118,-0.0194, 0.0130,-1.2703
17-Jan-2019 10:29:01.305,-0.0102,-0.0073,-0.9865, 0.0111, 0.0051, 0.0145,-0.0094,-0.0149,-0.0118,-0.0195, 0.0130,-1.2703
17-Jan-2019 10:29:01.347,-0.0085,-0.0084,-0.9851, 0.0107, 0.0060, 0.0151,-0.0105,-0.0128,-0.0118,-0.0194, 0.0130,-1.2703
17-Jan-2019 10:29:01.385,-0.0090,-0.0066,-0.9857, 0.0109, 0.0056, 0.0142,-0.0115,-0.0149,-0.0118,-0.0194, 0.0130,-1.2703
17-Jan-2019 10:29:01.425,-0.0082,-0.0078,-0.9857, 0.0112, 0.0043, 0.0143,-0.0094,-0.0159,-0.0129,-0.0194, 0.0130,-1.2703
17-Jan-2019 10:29:01.464,-0.0075,-0.0094,-0.9849, 0.0108, 0.0037, 0.0140,-0.0094,-0.0138,-0.0129,-0.0194, 0.0130,-1.2703
17-Jan-2019 10:29:01.504,-0.0082,-0.0078,-0.9853, 0.0109, 0.0047, 0.0149,-0.0094,-0.0128,-0.0129,-0.0195, 0.0130,-1.2703
17-Jan-2019 10:29:01.545,-0.0104,-0.0078,-0.9856, 0.0093, 0.0050, 0.0136,-0.0105,-0.0128,-0.0118,-0.0194, 0.0130,-1.2703
17-Jan-2019 10:29:01.583,-0.0088,-0.0089,-0.9854, 0.0100, 0.0054, 0.0145,-0.0094,-0.0159,-0.0129,-0.0194, 0.0130,-1.2703
17-Jan-2019 10:29:01.624,-0.0080,-0.0086,-0.9853, 0.0112, 0.0044, 0.0141,-0.0105,-0.0149,-0.0107,-0.0194, 0.0130,-1.2703
17-Jan-2019 10:29:01.663,-0.0089,-0.0079,-0.9843, 0.0113, 0.0048, 0.0139,-0.0105,-0.0149,-0.0118,-0.0194, 0.0130,-1.2703
17-Jan-2019 10:29:01.703,-0.0091,-0.0082,-0.9855, 0.0095, 0.0051, 0.0139,-0.0094,-0.0117,-0.0129,-0.0193, 0.0130,-1.2703
17-Jan-2019 10:29:01.742,-0.0087,-0.0075,-0.9840, 0.0107, 0.0049, 0.0148,-0.0105,-0.0149,-0.0107,-0.0194, 0.0130,-1.2703
17-Jan-2019 10:29:01.782,-0.0078,-0.0086,-0.9849, 0.0104, 0.0041, 0.0149,-0.0084,-0.0127,-0.0128,-0.0193, 0.0130,-1.2703
17-Jan-2019 10:29:01.822,-0.0103,-0.0075,-0.9858, 0.0097, 0.0063, 0.0135,-0.0094,-0.0149,-0.0118,-0.0193, 0.0130,-1.2703
17-Jan-2019 10:29:01.862,-0.0079,-0.0096,-0.9856, 0.0103, 0.0045, 0.0147,-0.0105,-0.0138,-0.0107,-0.0193, 0.0130,-1.2703
17-Jan-2019 10:29:01.901,-0.0097,-0.0084,-0.9850, 0.0109, 0.0038, 0.0141,-0.0094,-0.0138,-0.0118,-0.0193, 0.0130,-1.2702
17-Jan-2019 10:29:01.941,-0.0079,-0.0079,-0.9861, 0.0104, 0.0049, 0.0145,-0.0105,-0.0149,-0.0118,-0.0193, 0.0130,-1.2703
17-Jan-2019 10:29:01.981,-0.0099,-0.0076,-0.9850, 0.0090, 0.0056, 0.0136,-0.0105,-0.0160,-0.0118,-0.0193, 0.0130,-1.2702
17-Jan-2019 10:29:02.021,-0.0078,-0.0088,-0.9845, 0.0119, 0.0040, 0.0148,-0.0105,-0.0128,-0.0118,-0.0193, 0.0130,-1.2702
17-Jan-2019 10:29:02.060,-0.0089,-0.0077,-0.9844, 0.0095, 0.0054, 0.0141,-0.0094,-0.0138,-0.0129,-0.0193, 0.0130,-1.2702
17-Jan-2019 10:29:02.100,-0.0091,-0.0085,-0.9851, 0.0100, 0.0031, 0.0141,-0.0073,-0.0127,-0.0118,-0.0192, 0.0130,-1.2702
17-Jan-2019 10:29:02.140,-0.0091,-0.0078,-0.9850, 0.0092, 0.0059, 0.0147,-0.0094,-0.0160,-0.0118,-0.0193, 0.0130,-1.2702
17-Jan-2019 10:29:02.180,-0.0099,-0.0084,-0.9859, 0.0095, 0.0060, 0.0140,-0.0094,-0.0138,-0.0129,-0.0192, 0.0130,-1.2702
17-Jan-2019 10:29:02.219,-0.0081,-0.0083,-0.9850, 0.0113, 0.0039, 0.0145,-0.0115,-0.0160,-0.0139,-0.0192, 0.0130,-1.2702
17-Jan-2019 10:29:02.259,-0.0090,-0.0073,-0.9855, 0.0093, 0.0054, 0.0151,-0.0115,-0.0149,-0.0118,-0.0192, 0.0130,-1.2702
17-Jan-2019 10:29:02.299,-0.0083,-0.0098,-0.9851, 0.0107, 0.0043, 0.0149,-0.0094,-0.0138,-0.0129,-0.0192, 0.0130,-1.2702
17-Jan-2019 10:29:02.339,-0.0094,-0.0081,-0.9854, 0.0088, 0.0055, 0.0147,-0.0105,-0.0128,-0.0118,-0.0192, 0.0130,-1.2702
17-Jan-2019 10:29:02.378,-0.0084,-0.0079,-0.9860, 0.0106, 0.0049, 0.0147,-0.0105,-0.0138,-0.0118,-0.0192, 0.0130,-1.2702
17-Jan-2019 10:29:02.418,-0.0095,-0.0075,-0.9865, 0.0098, 0.0045, 0.0138,-0.0105,-0.0138,-0.0129,-0.0192, 0.0130,-1.2702
17-Jan-2019 10:29:02.457,-0.0094,-0.0089,-0.9857, 0.0104, 0.0037, 0.0136,-0.0126,-0.0138,-0.0129,-0.0192, 0.0130,-1.2703
17-Jan-2019 10:29:02.497,-0.0082,-0.0079,-0.9855, 0.0110, 0.0058, 0.0146,-0.0105,-0.0138,-0.0129,-0.0191, 0.0130,-1.2703
17-Jan-2019 10:29:02.537,-0.0097,-0.0083,-0.9855, 0.0099, 0.0049, 0.0150,-0.0094,-0.0149,-0.0139,-0.0191, 0.0130,-1.2703
17-Jan-2019 10:29:02.577,-0.0084,-0.0073,-0.9850, 0.0103, 0.0049, 0.0146,-0.0094,-0.0138,-0.0118,-0.0191, 0.0130,-1.2703
17-Jan-2019 10:29:02.617,-0.0094,-0.0080,-0.9861, 0.0094, 0.0044, 0.0139,-0.0116,-0.0138,-0.0107,-0.0191, 0.0129,-1.2703
17-Jan-2019 10:29:02.657,-0.0090,-0.0078,-0.9864, 0.0107, 0.0051, 0.0135,-0.0105,-0.0138,-0.0129,-0.0191, 0.0129,-1.2703
17-Jan-2019 10:29:02.696,-0.0091,-0.0083,-0.9865, 0.0097, 0.0051, 0.0139,-0.0094,-0.0128,-0.0107,-0.0190, 0.0129,-1.2703
17-Jan-2019 10:29:02.736,-0.0085,-0.0083,-0.9865, 0.0102, 0.0051, 0.0143,-0.0105,-0.0138,-0.0118,-0.0190, 0.0129,-1.2703
17-Jan-2019 10:29:02.775,-0.0085,-0.0081,-0.9858, 0.0093, 0.0049, 0.0143,-0.0084,-0.0138,-0.0107,-0.0191, 0.0129,-1.2703
17-Jan-2019 10:29:02.816,-0.0094,-0.0081,-0.9860, 0.0108, 0.0040, 0.0140,-0.0094,-0.0149,-0.0107,-0.0190, 0.0129,-1.2703
17-Jan-2019 10:29:02.855,-0.0088,-0.0088,-0.9843, 0.0102, 0.0045, 0.0137,-0.0105,-0.0117,-0.0118,-0.0190, 0.0130,-1.2703
17-Jan-2019 10:29:02.895,-0.0094,-0.0085,-0.9858, 0.0107, 0.0047, 0.0133,-0.0105,-0.0149,-0.0118,-0.0190, 0.0130,-1.2703
17-Jan-2019 10:29:02.934,-0.0095,-0.0083,-0.9856, 0.0092, 0.0052, 0.0135,-0.0105,-0.0138,-0.0129,-0.0190, 0.0129,-1.2703
17-Jan-2019 10:29:02.974,-0.0103,-0.0101,-0.9856, 0.0098, 0.0037, 0.0161,-0.0105,-0.0149,-0.0118,-0.0190, 0.0129,-1.2703
17-Jan-2019 10:29:03.014,-0.0077,-0.0086,-0.9859, 0.0099, 0.0042, 0.0135,-0.0105,-0.0149,-0.0129,-0.0190, 0.0129,-1.2703
17-Jan-2019 10:29:03.053,-0.0090,-0.0074,-0.9858, 0.0096, 0.0047, 0.0130,-0.0105,-0.0149,-0.0118,-0.0190, 0.0129,-1.2703
17-Jan-2019 10:29:03.093,-0.0086,-0.0075,-0.9845, 0.0104, 0.0045, 0.0140,-0.0105,-0.0149,-0.0118,-0.0190, 0.0129,-1.2703
17-Jan-2019 10:29:03.133,-0.0092,-0.0081,-0.9851, 0.0100, 0.0046, 0.0137,-0.0094,-0.0138,-0.0118,-0.0190, 0.0129,-1.2703
17-Jan-2019 10:29:03.174,-0.0069,-0.0087,-0.9856, 0.0107, 0.0038, 0.0148,-0.0116,-0.0128,-0.0107,-0.0190, 0.0129,-1.2704
17-Jan-2019 10:29:03.213,-0.0109,-0.0079,-0.9857, 0.0081, 0.0049, 0.0131,-0.0105,-0.0138,-0.0129,-0.0190, 0.0129,-1.2704
17-Jan-2019 10:29:03.253,-0.0081,-0.0080,-0.9863, 0.0104, 0.0050, 0.0135,-0.0105,-0.0149,-0.0107,-0.0190, 0.0129,-1.2704
17-Jan-2019 10:29:03.292,-0.0092,-0.0084,-0.9854, 0.0108, 0.0051, 0.0141,-0.0105,-0.0149,-0.0139,-0.0190, 0.0129,-1.2704
17-Jan-2019 10:29:03.332,-0.0088,-0.0079,-0.9853, 0.0114, 0.0047, 0.0147,-0.0105,-0.0149,-0.0129,-0.0190, 0.0129,-1.2704
17-Jan-2019 10:29:03.371,-0.0085,-0.0091,-0.9853, 0.0098, 0.0045, 0.0131,-0.0094,-0.0138,-0.0129,-0.0189, 0.0129,-1.2704
17-Jan-2019 10:29:03.411,-0.0091,-0.0070,-0.9858, 0.0105, 0.0043, 0.0128,-0.0105,-0.0160,-0.0107,-0.0189, 0.0129,-1.2704
17-Jan-2019 10:29:03.452,-0.0094,-0.0081,-0.9867, 0.0075, 0.0050, 0.0137,-0.0116,-0.0138,-0.0118,-0.0189, 0.0129,-1.2704
17-Jan-2019 10:29:03.491,-0.0076,-0.0083,-0.9866, 0.0101, 0.0043, 0.0144,-0.0094,-0.0138,-0.0107,-0.0189, 0.0129,-1.2704
17-Jan-2019 10:29:03.531,-0.0084,-0.0085,-0.9863, 0.0101, 0.0046, 0.0137,-0.0126,-0.0160,-0.0118,-0.0189, 0.0129,-1.2704
17-Jan-2019 10:29:03.570,-0.0086,-0.0074,-0.9854, 0.0100, 0.0057, 0.0133,-0.0105,-0.0149,-0.0118,-0.0189, 0.0129,-1.2704
17-Jan-2019 10:29:03.610,-0.0086,-0.0087,-0.9859, 0.0098, 0.0047, 0.0146,-0.0115,-0.0149,-0.0129,-0.0189, 0.0129,-1.2704
17-Jan-2019 10:29:03.649,-0.0081,-0.0086,-0.9863, 0.0105, 0.0044, 0.0142,-0.0105,-0.0138,-0.0118,-0.0189, 0.0128,-1.2704
17-Jan-2019 10:29:03.689,-0.0095,-0.0083,-0.9858, 0.0109, 0.0045, 0.0138,-0.0105,-0.0149,-0.0107,-0.0189, 0.0128,-1.2703
17-Jan-2019 10:29:03.729,-0.0095,-0.0082,-0.9860, 0.0099, 0.0039, 0.0134,-0.0105,-0.0128,-0.0129,-0.0188, 0.0128,-1.2703
17-Jan-2019 10:29:03.769,-0.0087,-0.0080,-0.9863, 0.0098, 0.0047, 0.0144,-0.0105,-0.0138,-0.0118,-0.0188, 0.0128,-1.2703
17-Jan-2019 10:29:03.809,-0.0090,-0.0084,-0.9863, 0.0093, 0.0038, 0.0132,-0.0105,-0.0138,-0.0118,-0.0188, 0.0128,-1.2703
17-Jan-2019 10:29:03.849,-0.0094,-0.0072,-0.9859, 0.0102, 0.0048, 0.0140,-0.0105,-0.0138,-0.0129,-0.0188, 0.0128,-1.2703
17-Jan-2019 10:29:03.888,-0.0099,-0.0074,-0.9869, 0.0095, 0.0056, 0.0138,-0.0116,-0.0138,-0.0107,-0.0188, 0.0128,-1.2703
17-Jan-2019 10:29:03.928,-0.0087,-0.0072,-0.9856, 0.0093, 0.0050, 0.0131,-0.0105,-0.0138,-0.0107,-0.0188, 0.0128,-1.2703
17-Jan-2019 10:29:03.968,-0.0088,-0.0086,-0.9852, 0.0110, 0.0041, 0.0130,-0.0094,-0.0149,-0.0129,-0.0188, 0.0128,-1.2703
17-Jan-2019 10:29:04.009,-0.0105,-0.0073,-0.9870, 0.0087, 0.0047, 0.0129,-0.0084,-0.0138,-0.0118,-0.0188, 0.0128,-1.2703
17-Jan-2019 10:29:04.047,-0.0099,-0.0085,-0.9866, 0.0093, 0.0049, 0.0133,-0.0105,-0.0138,-0.0118,-0.0188, 0.0128,-1.2703
17-Jan-2019 10:29:04.087,-0.0088,-0.0088,-0.9865, 0.0100, 0.0046, 0.0140,-0.0105,-0.0138,-0.0107,-0.0188, 0.0128,-1.2703
17-Jan-2019 10:29:04.126,-0.0089,-0.0082,-0.9867, 0.0103, 0.0049, 0.0125,-0.0105,-0.0149,-0.0139,-0.0187, 0.0128,-1.2703
17-Jan-2019 10:29:04.166,-0.0085,-0.0083,-0.9860, 0.0092, 0.0041, 0.0132,-0.0105,-0.0149,-0.0139,-0.0188, 0.0128,-1.2703
17-Jan-2019 10:29:04.206,-0.0087,-0.0081,-0.9865, 0.0090, 0.0044, 0.0140,-0.0105,-0.0160,-0.0097,-0.0188, 0.0127,-1.2703
17-Jan-2019 10:29:04.246,-0.0093,-0.0082,-0.9860, 0.0099, 0.0044, 0.0138,-0.0116,-0.0128,-0.0129,-0.0188, 0.0127,-1.2703
17-Jan-2019 10:29:04.285,-0.0096,-0.0080,-0.9861, 0.0097, 0.0053, 0.0138,-0.0094,-0.0170,-0.0118,-0.0188, 0.0127,-1.2703
17-Jan-2019 10:29:04.325,-0.0092,-0.0076,-0.9867, 0.0094, 0.0053, 0.0130,-0.0116,-0.0138,-0.0118,-0.0187, 0.0128,-1.2703
17-Jan-2019 10:29:04.364,-0.0087,-0.0082,-0.9868, 0.0096, 0.0045, 0.0127,-0.0094,-0.0128,-0.0107,-0.0187, 0.0128,-1.2703
17-Jan-2019 10:29:04.404,-0.0082,-0.0086,-0.9865, 0.0105, 0.0052, 0.0131,-0.0094,-0.0138,-0.0118,-0.0187, 0.0128,-1.2703
17-Jan-2019 10:29:04.445,-0.0092,-0.0082,-0.9859, 0.0093, 0.0054, 0.0130,-0.0094,-0.0149,-0.0118,-0.0187, 0.0127,-1.2703
17-Jan-2019 10:29:04.484,-0.0088,-0.0088,-0.9867, 0.0108, 0.0039, 0.0126,-0.0105,-0.0149,-0.0118,-0.0187, 0.0127,-1.2703
17-Jan-2019 10:29:04.524,-0.0100,-0.0074,-0.9860, 0.0087, 0.0048, 0.0132,-0.0105,-0.0128,-0.0118,-0.0187, 0.0127,-1.2703
17-Jan-2019 10:29:04.563,-0.0094,-0.0092,-0.9866, 0.0090, 0.0045, 0.0141,-0.0094,-0.0128,-0.0129,-0.0186, 0.0127,-1.2703
17-Jan-2019 10:29:04.603,-0.0069,-0.0090,-0.9877, 0.0119, 0.0040, 0.0135,-0.0105,-0.0149,-0.0129,-0.0186, 0.0127,-1.2703
17-Jan-2019 10:29:04.643,-0.0089,-0.0079,-0.9864, 0.0101, 0.0047, 0.0130,-0.0115,-0.0160,-0.0129,-0.0186, 0.0127,-1.2702
17-Jan-2019 10:29:04.683,-0.0090,-0.0079,-0.9860, 0.0091, 0.0042, 0.0127,-0.0105,-0.0138,-0.0107,-0.0186, 0.0128,-1.2702
17-Jan-2019 10:29:04.723,-0.0086,-0.0080,-0.9869, 0.0101, 0.0056, 0.0134,-0.0094,-0.0149,-0.0107,-0.0186, 0.0127,-1.2702
17-Jan-2019 10:29:04.762,-0.0089,-0.0088,-0.9862, 0.0096, 0.0038, 0.0133,-0.0094,-0.0138,-0.0118,-0.0186, 0.0128,-1.2702
17-Jan-2019 10:29:04.802,-0.0098,-0.0073,-0.9863, 0.0090, 0.0051, 0.0129,-0.0083,-0.0149,-0.0129,-0.0186, 0.0128,-1.2702
17-Jan-2019 10:29:04.842,-0.0088,-0.0081,-0.9871, 0.0100, 0.0040, 0.0132,-0.0084,-0.0149,-0.0118,-0.0186, 0.0128,-1.2702
17-Jan-2019 10:29:04.881,-0.0085,-0.0079,-0.9849, 0.0096, 0.0050, 0.0139,-0.0094,-0.0149,-0.0118,-0.0186, 0.0128,-1.2702
17-Jan-2019 10:29:04.922,-0.0090,-0.0090,-0.9857, 0.0098, 0.0036, 0.0147,-0.0105,-0.0128,-0.0118,-0.0186, 0.0127,-1.2703
17-Jan-2019 10:29:04.961,-0.0095,-0.0074,-0.9868, 0.0094, 0.0052, 0.0137,-0.0105,-0.0128,-0.0118,-0.0185, 0.0127,-1.2703
17-Jan-2019 10:29:05.001,-0.0078,-0.0087,-0.9869, 0.0108, 0.0043, 0.0127,-0.0105,-0.0138,-0.0107,-0.0185, 0.0127,-1.2703
17-Jan-2019 10:29:05.040,-0.0087,-0.0073,-0.9857, 0.0092, 0.0043, 0.0139,-0.0094,-0.0149,-0.0129,-0.0185, 0.0127,-1.2703
17-Jan-2019 10:29:05.081,-0.0098,-0.0077,-0.9869, 0.0101, 0.0051, 0.0136,-0.0094,-0.0138,-0.0118,-0.0185, 0.0127,-1.2703
17-Jan-2019 10:29:05.120,-0.0088,-0.0087,-0.9870, 0.0099, 0.0040, 0.0128,-0.0116,-0.0138,-0.0107,-0.0185, 0.0127,-1.2703
17-Jan-2019 10:29:05.159,-0.0094,-0.0081,-0.9859, 0.0098, 0.0050, 0.0135,-0.0094,-0.0149,-0.0118,-0.0185, 0.0127,-1.2703
17-Jan-2019 10:29:05.199,-0.0084,-0.0081,-0.9865, 0.0092, 0.0047, 0.0138,-0.0094,-0.0149,-0.0118,-0.0185, 0.0127,-1.2703
17-Jan-2019 10:29:05.239,-0.0085,-0.0084,-0.9860, 0.0095, 0.0038, 0.0138,-0.0105,-0.0138,-0.0107,-0.0185, 0.0126,-1.2703
17-Jan-2019 10:29:05.279,-0.0090,-0.0097,-0.9857, 0.0096, 0.0037, 0.0134,-0.0094,-0.0149,-0.0129,-0.0185, 0.0126,-1.2703
17-Jan-2019 10:29:05.318,-0.0094,-0.0072,-0.9858, 0.0090, 0.0057, 0.0134,-0.0116,-0.0117,-0.0118,-0.0185, 0.0127,-1.2703
17-Jan-2019 10:29:05.358,-0.0081,-0.0086,-0.9866, 0.0096, 0.0032, 0.0136,-0.0105,-0.0149,-0.0107,-0.0185, 0.0127,-1.2703
17-Jan-2019 10:29:05.397,-0.0102,-0.0087,-0.9873, 0.0090, 0.0029, 0.0130,-0.0084,-0.0149,-0.0118,-0.0185, 0.0127,-1.2703
17-Jan-2019 10:29:05.437,-0.0096,-0.0085,-0.9861, 0.0092, 0.0046, 0.0134,-0.0105,-0.0160,-0.0129,-0.0185, 0.0127,-1.2703
17-Jan-2019 10:29:05.478,-0.0079,-0.0079,-0.9859, 0.0099, 0.0052, 0.0128,-0.0105,-0.0138,-0.0129,-0.0185, 0.0127,-1.2703
17-Jan-2019 10:29:05.517,-0.0099,-0.0084,-0.9862, 0.0094, 0.0042, 0.0140,-0.0116,-0.0138,-0.0118,-0.0185, 0.0127,-1.2703
17-Jan-2019 10:29:05.557,-0.0076,-0.0087,-0.9865, 0.0103, 0.0045, 0.0124,-0.0094,-0.0159,-0.0129,-0.0185, 0.0127,-1.2703
17-Jan-2019 10:29:05.596,-0.0100,-0.0075,-0.9864, 0.0084, 0.0055, 0.0129,-0.0094,-0.0138,-0.0118,-0.0185, 0.0127,-1.2703
17-Jan-2019 10:29:05.636,-0.0083,-0.0080,-0.9863, 0.0113, 0.0046, 0.0141,-0.0094,-0.0138,-0.0107,-0.0185, 0.0127,-1.2703
17-Jan-2019 10:29:05.676,-0.0086,-0.0075,-0.9869, 0.0086, 0.0052, 0.0133,-0.0105,-0.0138,-0.0118,-0.0185, 0.0127,-1.2703
17-Jan-2019 10:29:05.716,-0.0098,-0.0084,-0.9872, 0.0104, 0.0034, 0.0135,-0.0084,-0.0138,-0.0118,-0.0185, 0.0127,-1.2703
17-Jan-2019 10:29:05.755,-0.0089,-0.0094,-0.9862, 0.0074, 0.0056, 0.0120,-0.0105,-0.0106,-0.0118,-0.0184, 0.0127,-1.2703
17-Jan-2019 10:29:05.795,-0.0083,-0.0075,-0.9862, 0.0109, 0.0053, 0.0125,-0.0105,-0.0117,-0.0129,-0.0184, 0.0127,-1.2703
17-Jan-2019 10:29:05.835,-0.0076,-0.0082,-0.9866, 0.0096, 0.0034, 0.0138,-0.0094,-0.0138,-0.0118,-0.0184, 0.0127,-1.2703
17-Jan-2019 10:29:05.874,-0.0102,-0.0091,-0.9865, 0.0104, 0.0050, 0.0127,-0.0116,-0.0138,-0.0118,-0.0184, 0.0126,-1.2703
17-Jan-2019 10:29:05.914,-0.0087,-0.0078,-0.9865, 0.0090, 0.0049, 0.0131,-0.0115,-0.0138,-0.0129,-0.0183, 0.0127,-1.2703
17-Jan-2019 10:29:05.954,-0.0094,-0.0074,-0.9862, 0.0085, 0.0049, 0.0124,-0.0105,-0.0149,-0.0118,-0.0183, 0.0126,-1.2703
17-Jan-2019 10:29:05.994,-0.0072,-0.0089,-0.9852, 0.0092, 0.0037, 0.0132,-0.0094,-0.0138,-0.0118,-0.0183, 0.0126,-1.2703
17-Jan-2019 10:29:06.033,-0.0091,-0.0079,-0.9860, 0.0100, 0.0039, 0.0135,-0.0094,-0.0128,-0.0129,-0.0183, 0.0126,-1.2703
17-Jan-2019 10:29:06.073,-0.0092,-0.0075,-0.9857, 0.0092, 0.0045, 0.0127,-0.0094,-0.0149,-0.0118,-0.0183, 0.0126,-1.2703
17-Jan-2019 10:29:06.113,-0.0095,-0.0067,-0.9870, 0.0077, 0.0064, 0.0133,-0.0094,-0.0128,-0.0118,-0.0183, 0.0126,-1.2703
17-Jan-2019 10:29:06.152,-0.0116,-0.0070,-0.9854, 0.0067, 0.0055, 0.0128,-0.0094,-0.0160,-0.0118,-0.0183, 0.0127,-1.2703
17-Jan-2019 10:29:06.192,-0.0060,-0.0096,-0.9853, 0.0095, 0.0050, 0.0143,-0.0084,-0.0128,-0.0107,-0.0182, 0.0127,-1.2703
17-Jan-2019 10:29:06.232,-0.0094,-0.0081,-0.9864, 0.0120, 0.0024, 0.0136,-0.0105,-0.0138,-0.0118,-0.0182, 0.0127,-1.2703
17-Jan-2019 10:29:06.272,-0.0082,-0.0085,-0.9857, 0.0091, 0.0050, 0.0141,-0.0094,-0.0117,-0.0118,-0.0182, 0.0127,-1.2703
17-Jan-2019 10:29:06.312,-0.0104,-0.0078,-0.9858, 0.0088, 0.0038, 0.0125,-0.0105,-0.0138,-0.0118,-0.0182, 0.0127,-1.2703
17-Jan-2019 10:29:06.351,-0.0093,-0.0071,-0.9861, 0.0085, 0.0077, 0.0130,-0.0105,-0.0149,-0.0118,-0.0182, 0.0127,-1.2703
17-Jan-2019 10:29:06.391,-0.0069,-0.0098,-0.9859, 0.0104, 0.0039, 0.0140,-0.0105,-0.0138,-0.0107,-0.0182, 0.0127,-1.2703
17-Jan-2019 10:29:06.431,-0.0076,-0.0093,-0.9862, 0.0104, 0.0035, 0.0120,-0.0094,-0.0138,-0.0118,-0.0182, 0.0127,-1.2703
17-Jan-2019 10:29:06.472,-0.0107,-0.0067,-0.9863, 0.0082, 0.0053, 0.0140,-0.0084,-0.0127,-0.0128,-0.0182, 0.0127,-1.2703
17-Jan-2019 10:29:06.510,-0.0097,-0.0070,-0.9864, 0.0088, 0.0048, 0.0125,-0.0116,-0.0138,-0.0118,-0.0181, 0.0127,-1.2703
17-Jan-2019 10:29:06.551,-0.0083,-0.0075,-0.9871, 0.0093, 0.0038, 0.0136,-0.0105,-0.0138,-0.0129,-0.0181, 0.0127,-1.2703
17-Jan-2019 10:29:06.590,-0.0084,-0.0090,-0.9865, 0.0097, 0.0029, 0.0135,-0.0105,-0.0138,-0.0118,-0.0181, 0.0127,-1.2703
17-Jan-2019 10:29:06.629,-0.0085,-0.0087,-0.9853, 0.0099, 0.0052, 0.0136,-0.0115,-0.0149,-0.0129,-0.0181, 0.0127,-1.2704
17-Jan-2019 10:29:06.670,-0.0097,-0.0087,-0.9863, 0.0080, 0.0047, 0.0137,-0.0105,-0.0128,-0.0118,-0.0181, 0.0127,-1.2704
17-Jan-2019 10:29:06.709,-0.0081,-0.0079,-0.9827, 0.0100, 0.0043, 0.0151,-0.0116,-0.0128,-0.0129,-0.0181, 0.0127,-1.2704
17-Jan-2019 10:29:06.749,-0.0089,-0.0083,-0.9732, 0.0082, 0.0033, 0.0367,-0.0137,-0.0149,-0.0118,-0.0181, 0.0126,-1.2704
17-Jan-2019 10:29:06.788,-0.0057,-0.0092,-0.9394, 0.0114, 0.0018, 0.0706,-0.0115,-0.0181,-0.0118,-0.0181, 0.0126,-1.2704
17-Jan-2019 10:29:06.828,-0.0153,-0.0165,-0.9297, 0.0106, 0.0031, 0.0740,-0.0136,-0.0202,-0.0108,-0.0181, 0.0125,-1.2704
17-Jan-2019 10:29:06.868,-0.0030,-0.0060,-0.9272, 0.0129, 0.0041, 0.0787,-0.0104,-0.0202,-0.0118,-0.0181, 0.0125,-1.2703
17-Jan-2019 10:29:06.908,-0.0145,-0.0174,-0.9327, 0.0077, 0.0024, 0.0712,-0.0115,-0.0170,-0.0097,-0.0181, 0.0126,-1.2703
17-Jan-2019 10:29:06.948,-0.0045,-0.0072,-0.9343, 0.0114, 0.0035, 0.0673,-0.0115,-0.0160,-0.0118,-0.0181, 0.0125,-1.2703
17-Jan-2019 10:29:06.988,-0.0110,-0.0078,-0.9326, 0.0076, 0.0069, 0.0657,-0.0073,-0.0117,-0.0118,-0.0181, 0.0126,-1.2703
17-Jan-2019 10:29:07.027,-0.0102,-0.0067,-0.9257, 0.0085, 0.0010, 0.0685,-0.0094,-0.0106,-0.0107,-0.0181, 0.0125,-1.2702
17-Jan-2019 10:29:07.067,-0.0106,-0.0039,-0.9110, 0.0079, 0.0069, 0.0822,-0.0095,-0.0096,-0.0107,-0.0181, 0.0125,-1.2702
17-Jan-2019 10:29:07.107,-0.0082,-0.0074,-0.8993, 0.0102, 0.0012, 0.0936,-0.0094,-0.0128,-0.0129,-0.0181, 0.0125,-1.2702
17-Jan-2019 10:29:07.146,-0.0058,-0.0031,-0.8882, 0.0086, 0.0051, 0.1070,-0.0084,-0.0106,-0.0128,-0.0181, 0.0125,-1.2702
17-Jan-2019 10:29:07.186,-0.0067,-0.0070,-0.8834, 0.0096, 0.0036, 0.1133,-0.0105,-0.0117,-0.0129,-0.0181, 0.0125,-1.2702
17-Jan-2019 10:29:07.225,-0.0070,-0.0071,-0.8791, 0.0092, 0.0031, 0.1182,-0.0084,-0.0106,-0.0128,-0.0181, 0.0125,-1.2702
17-Jan-2019 10:29:07.265,-0.0068,-0.0053,-0.8816, 0.0115, 0.0053, 0.1177,-0.0084,-0.0128,-0.0107,-0.0181, 0.0125,-1.2702
17-Jan-2019 10:29:07.305,-0.0071,-0.0104,-0.8812, 0.0086, 0.0050, 0.1172,-0.0105,-0.0117,-0.0107,-0.0181, 0.0125,-1.2702
17-Jan-2019 10:29:07.345,-0.0061,-0.0080,-0.8801, 0.0123, 0.0059, 0.1207,-0.0094,-0.0138,-0.0139,-0.0181, 0.0125,-1.2702
17-Jan-2019 10:29:07.386,-0.0064,-0.0088,-0.8781, 0.0102, 0.0090, 0.1212,-0.0094,-0.0128,-0.0097,-0.0181, 0.0125,-1.2702
17-Jan-2019 10:29:07.424,-0.0069,-0.0089,-0.8764, 0.0126, 0.0056, 0.1236,-0.0105,-0.0138,-0.0107,-0.0181, 0.0125,-1.2702
17-Jan-2019 10:29:07.464,-0.0112,-0.0033,-0.8765, 0.0066, 0.0102, 0.1216,-0.0094,-0.0128,-0.0107,-0.0181, 0.0125,-1.2701
17-Jan-2019 10:29:07.504,-0.0069,-0.0063,-0.8763, 0.0128, 0.0042, 0.1230,-0.0105,-0.0160,-0.0097,-0.0182, 0.0125,-1.2701
17-Jan-2019 10:29:07.544,-0.0096,-0.0049,-0.8732, 0.0086, 0.0077, 0.1242,-0.0094,-0.0117,-0.0107,-0.0182, 0.0125,-1.2701
17-Jan-2019 10:29:07.584,-0.0084,-0.0070,-0.8877, 0.0101, 0.0050, 0.1193,-0.0073,-0.0149,-0.0128,-0.0182, 0.0126,-1.2701
17-Jan-2019 10:29:07.623,-0.0072,-0.0059,-0.9280, 0.0110, 0.0051, 0.0856,-0.0094,-0.0149,-0.0129,-0.0182, 0.0126,-1.2701
17-Jan-2019 10:29:07.663,-0.0083,-0.0141,-0.9722, 0.0112, 0.0015, 0.0393,-0.0073,-0.0127,-0.0128,-0.0181, 0.0127,-1.2702
17-Jan-2019 10:29:07.703,-0.0059,-0.0099,-1.0067, 0.0085, 0.0015, 0.0005,-0.0094,-0.0117,-0.0107,-0.0181, 0.0128,-1.2702
17-Jan-2019 10:29:07.743,-0.0065,-0.0100,-1.0191, 0.0143, 0.0040,-0.0166,-0.0105,-0.0160,-0.0107,-0.0181, 0.0128,-1.2702
17-Jan-2019 10:29:07.782,-0.0139,-0.0052,-1.0160, 0.0031, 0.0060,-0.0183,-0.0126,-0.0117,-0.0107,-0.0181, 0.0128,-1.2701
17-Jan-2019 10:29:07.822,-0.0074,-0.0062,-1.0044, 0.0069, 0.0052,-0.0083,-0.0083,-0.0159,-0.0139,-0.0181, 0.0128,-1.2701
17-Jan-2019 10:29:07.862,-0.0105,-0.0075,-0.9959, 0.0103, 0.0077, 0.0058,-0.0116,-0.0138,-0.0107,-0.0181, 0.0128,-1.2702
17-Jan-2019 10:29:07.902,-0.0087,-0.0129,-0.9853, 0.0088, 0.0010, 0.0143,-0.0105,-0.0149,-0.0139,-0.0180, 0.0128,-1.2702
17-Jan-2019 10:29:07.941,-0.0059,-0.0055,-0.9761, 0.0133, 0.0056, 0.0193,-0.0094,-0.0138,-0.0118,-0.0180, 0.0128,-1.2702
17-Jan-2019 10:29:07.980,-0.0097,-0.0099,-0.9774, 0.0079, 0.0065, 0.0235,-0.0094,-0.0128,-0.0107,-0.0180, 0.0128,-1.2702
17-Jan-2019 10:29:08.020,-0.0103,-0.0068,-0.9801, 0.0074, 0.0043, 0.0195,-0.0126,-0.0138,-0.0129,-0.0179, 0.0128,-1.2702
17-Jan-2019 10:29:08.060,-0.0073,-0.0088,-0.9827, 0.0079, 0.0030, 0.0166,-0.0105,-0.0138,-0.0118,-0.0179, 0.0128,-1.2702
17-Jan-2019 10:29:08.099,-0.0069,-0.0056,-0.9867, 0.0131, 0.0028, 0.0086,-0.0116,-0.0128,-0.0118,-0.0178, 0.0128,-1.2702
17-Jan-2019 10:29:08.139,-0.0112,-0.0114,-0.9903, 0.0052, 0.0051, 0.0084,-0.0084,-0.0117,-0.0118,-0.0178, 0.0128,-1.2702
17-Jan-2019 10:29:08.179,-0.0050,-0.0070,-0.9932, 0.0088, 0.0048, 0.0126,-0.0105,-0.0149,-0.0118,-0.0178, 0.0128,-1.2702
17-Jan-2019 10:29:08.219,-0.0107,-0.0084,-0.9884, 0.0108, 0.0019, 0.0107,-0.0094,-0.0160,-0.0118,-0.0178, 0.0128,-1.2702
17-Jan-2019 10:29:08.259,-0.0079,-0.0079,-0.9887, 0.0085, 0.0060, 0.0074,-0.0105,-0.0128,-0.0118,-0.0178, 0.0128,-1.2702
17-Jan-2019 10:29:08.299,-0.0075,-0.0098,-0.9879, 0.0086, 0.0055, 0.0144,-0.0105,-0.0128,-0.0129,-0.0177, 0.0128,-1.2702
17-Jan-2019 10:29:08.339,-0.0119,-0.0082,-0.9836, 0.0085, 0.0036, 0.0130,-0.0083,-0.0159,-0.0118,-0.0177, 0.0128,-1.2702
17-Jan-2019 10:29:08.378,-0.0070,-0.0085,-0.9838, 0.0083, 0.0057, 0.0133,-0.0094,-0.0128,-0.0118,-0.0177, 0.0128,-1.2702
17-Jan-2019 10:29:08.418,-0.0086,-0.0094,-0.9837, 0.0121, 0.0027, 0.0159,-0.0105,-0.0160,-0.0129,-0.0177, 0.0128,-1.2702
17-Jan-2019 10:29:08.458,-0.0094,-0.0066,-0.9854, 0.0068, 0.0062, 0.0158,-0.0094,-0.0149,-0.0107,-0.0176, 0.0128,-1.2702
17-Jan-2019 10:29:08.497,-0.0070,-0.0093,-0.9854, 0.0110, 0.0044, 0.0154,-0.0116,-0.0138,-0.0118,-0.0176, 0.0128,-1.2702
17-Jan-2019 10:29:08.537,-0.0089,-0.0070,-0.9875, 0.0083, 0.0059, 0.0156,-0.0105,-0.0138,-0.0118,-0.0176, 0.0128,-1.2702
17-Jan-2019 10:29:08.577,-0.0073,-0.0083,-0.9833, 0.0114, 0.0018, 0.0165,-0.0115,-0.0181,-0.0118,-0.0176, 0.0128,-1.2702
17-Jan-2019 10:29:08.617,-0.0083,-0.0076,-0.9840, 0.0090, 0.0058, 0.0131,-0.0094,-0.0138,-0.0118,-0.0176, 0.0128,-1.2702
17-Jan-2019 10:29:08.656,-0.0080,-0.0090,-0.9891, 0.0103, 0.0030, 0.0144,-0.0094,-0.0170,-0.0107,-0.0176, 0.0128,-1.2702
17-Jan-2019 10:29:08.696,-0.0083,-0.0087,-0.9870, 0.0080, 0.0041, 0.0106,-0.0094,-0.0138,-0.0118,-0.0176, 0.0128,-1.2702
17-Jan-2019 10:29:08.736,-0.0096,-0.0089,-0.9890, 0.0102, 0.0024, 0.0145,-0.0115,-0.0170,-0.0107,-0.0176, 0.0128,-1.2702
17-Jan-2019 10:29:08.775,-0.0090,-0.0082,-0.9851, 0.0072, 0.0044, 0.0104,-0.0084,-0.0117,-0.0118,-0.0176, 0.0128,-1.2702
17-Jan-2019 10:29:08.815,-0.0080,-0.0090,-0.9855, 0.0099, 0.0045, 0.0147,-0.0094,-0.0128,-0.0118,-0.0176, 0.0128,-1.2702
17-Jan-2019 10:29:08.855,-0.0085,-0.0077,-0.9823, 0.0087, 0.0037, 0.0136,-0.0094,-0.0117,-0.0107,-0.0176, 0.0128,-1.2702
17-Jan-2019 10:29:08.895,-0.0087,-0.0086,-0.9836, 0.0081, 0.0052, 0.0131,-0.0094,-0.0128,-0.0107,-0.0175, 0.0127,-1.2702
17-Jan-2019 10:29:08.934,-0.0071,-0.0096,-0.9875, 0.0103, 0.0049, 0.0143,-0.0094,-0.0149,-0.0139,-0.0175, 0.0127,-1.2703
17-Jan-2019 10:29:08.974,-0.0097,-0.0085,-0.9863, 0.0076, 0.0052, 0.0137,-0.0084,-0.0138,-0.0107,-0.0175, 0.0128,-1.2703
17-Jan-2019 10:29:09.014,-0.0071,-0.0093,-0.9861, 0.0097, 0.0050, 0.0125,-0.0105,-0.0128,-0.0129,-0.0175, 0.0127,-1.2703
17-Jan-2019 10:29:09.054,-0.0092,-0.0087,-0.9911, 0.0079, 0.0026, 0.0132,-0.0094,-0.0149,-0.0107,-0.0175, 0.0127,-1.2703
17-Jan-2019 10:29:09.093,-0.0091,-0.0067,-0.9876, 0.0094, 0.0039, 0.0120,-0.0105,-0.0160,-0.0118,-0.0175, 0.0127,-1.2703
17-Jan-2019 10:29:09.133,-0.0087,-0.0095,-0.9871, 0.0104, 0.0045, 0.0119,-0.0105,-0.0138,-0.0118,-0.0175, 0.0127,-1.2703
17-Jan-2019 10:29:09.173,-0.0084,-0.0087,-0.9872, 0.0090, 0.0051, 0.0133,-0.0094,-0.0159,-0.0129,-0.0175, 0.0127,-1.2703
17-Jan-2019 10:29:09.213,-0.0089,-0.0078,-0.9830, 0.0090, 0.0038, 0.0142,-0.0116,-0.0128,-0.0129,-0.0174, 0.0127,-1.2703
17-Jan-2019 10:29:09.252,-0.0089,-0.0084,-0.9833, 0.0092, 0.0044, 0.0157,-0.0083,-0.0149,-0.0129,-0.0174, 0.0127,-1.2703
17-Jan-2019 10:29:09.294,-0.0076,-0.0072,-0.9838, 0.0085, 0.0037, 0.0170,-0.0116,-0.0106,-0.0129,-0.0174, 0.0127,-1.2704
17-Jan-2019 10:29:09.331,-0.0087,-0.0092,-0.9852, 0.0091, 0.0056, 0.0133,-0.0084,-0.0127,-0.0128,-0.0173, 0.0127,-1.2704
17-Jan-2019 10:29:09.371,-0.0079,-0.0063,-0.9903, 0.0074, 0.0052, 0.0122,-0.0084,-0.0138,-0.0129,-0.0173, 0.0127,-1.2704
17-Jan-2019 10:29:09.410,-0.0078,-0.0086,-0.9896, 0.0093, 0.0050, 0.0108,-0.0105,-0.0138,-0.0139,-0.0173, 0.0127,-1.2704
17-Jan-2019 10:29:09.451,-0.0083,-0.0080,-0.9872, 0.0083, 0.0023, 0.0108,-0.0094,-0.0149,-0.0118,-0.0173, 0.0127,-1.2704
17-Jan-2019 10:29:09.491,-0.0085,-0.0073,-0.9828, 0.0084, 0.0018, 0.0130,-0.0105,-0.0149,-0.0118,-0.0173, 0.0127,-1.2704
17-Jan-2019 10:29:09.531,-0.0079,-0.0065,-0.9844, 0.0091, 0.0038, 0.0159,-0.0115,-0.0138,-0.0129,-0.0173, 0.0127,-1.2705
17-Jan-2019 10:29:09.570,-0.0071,-0.0082,-0.9861, 0.0087, 0.0048, 0.0146,-0.0115,-0.0149,-0.0118,-0.0173, 0.0127,-1.2704
17-Jan-2019 10:29:09.610,-0.0078,-0.0089,-0.9857, 0.0097, 0.0031, 0.0113,-0.0083,-0.0159,-0.0118,-0.0173, 0.0127,-1.2705
17-Jan-2019 10:29:09.650,-0.0089,-0.0101,-0.9870, 0.0072, 0.0049, 0.0101,-0.0116,-0.0096,-0.0118,-0.0173, 0.0127,-1.2705
17-Jan-2019 10:29:09.689,-0.0080,-0.0084,-0.9886, 0.0078, 0.0043, 0.0123,-0.0094,-0.0127,-0.0139,-0.0173, 0.0127,-1.2705
17-Jan-2019 10:29:09.729,-0.0071,-0.0079,-0.9894, 0.0093, 0.0031, 0.0121,-0.0094,-0.0128,-0.0118,-0.0172, 0.0127,-1.2705
17-Jan-2019 10:29:09.769,-0.0090,-0.0085,-0.9887, 0.0084, 0.0033, 0.0122,-0.0094,-0.0149,-0.0129,-0.0172, 0.0127,-1.2705
17-Jan-2019 10:29:09.809,-0.0080,-0.0073,-0.9864, 0.0088, 0.0043, 0.0135,-0.0115,-0.0138,-0.0129,-0.0172, 0.0127,-1.2705
17-Jan-2019 10:29:09.848,-0.0080,-0.0076,-0.9871, 0.0084, 0.0044, 0.0129,-0.0105,-0.0128,-0.0118,-0.0171, 0.0127,-1.2706
17-Jan-2019 10:29:09.888,-0.0071,-0.0078,-0.9820, 0.0095, 0.0037, 0.0144,-0.0105,-0.0138,-0.0129,-0.0171, 0.0127,-1.2706
17-Jan-2019 10:29:09.928,-0.0096,-0.0087,-0.9834, 0.0068, 0.0033, 0.0160,-0.0084,-0.0128,-0.0118,-0.0171, 0.0127,-1.2706
17-Jan-2019 10:29:09.967,-0.0091,-0.0079,-0.9864, 0.0079, 0.0061, 0.0151,-0.0105,-0.0117,-0.0129,-0.0171, 0.0127,-1.2706
17-Jan-2019 10:29:10.007,-0.0074,-0.0081,-0.9892, 0.0096, 0.0051, 0.0152,-0.0094,-0.0159,-0.0129,-0.0171, 0.0127,-1.2707
17-Jan-2019 10:29:10.047,-0.0089,-0.0075,-0.9874, 0.0096, 0.0039, 0.0131,-0.0105,-0.0170,-0.0107,-0.0172, 0.0127,-1.2707
17-Jan-2019 10:29:10.087,-0.0084,-0.0084,-0.9884, 0.0079, 0.0034, 0.0135,-0.0094,-0.0128,-0.0129,-0.0171, 0.0127,-1.2707
17-Jan-2019 10:29:10.126,-0.0076,-0.0085,-0.9893, 0.0094, 0.0059, 0.0128,-0.0105,-0.0128,-0.0129,-0.0171, 0.0127,-1.2707
17-Jan-2019 10:29:10.166,-0.0084,-0.0087,-0.9844, 0.0080, 0.0026, 0.0125,-0.0115,-0.0149,-0.0118,-0.0171, 0.0127,-1.2707
17-Jan-2019 10:29:10.206,-0.0071,-0.0081,-0.9872, 0.0117, 0.0038, 0.0129,-0.0115,-0.0160,-0.0129,-0.0171, 0.0127,-1.2708
17-Jan-2019 10:29:10.245,-0.0103,-0.0098,-0.9856, 0.0072, 0.0049, 0.0128,-0.0094,-0.0149,-0.0118,-0.0172, 0.0126,-1.2708
17-Jan-2019 10:29:10.285,-0.0077,-0.0086,-0.9858, 0.0097, 0.0043, 0.0146,-0.0084,-0.0138,-0.0129,-0.0172, 0.0126,-1.2708
17-Jan-2019 10:29:10.325,-0.0086,-0.0079,-0.9849, 0.0091, 0.0051, 0.0157,-0.0084,-0.0138,-0.0118,-0.0172, 0.0126,-1.2708
17-Jan-2019 10:29:10.364,-0.0076,-0.0109,-0.9843, 0.0083, 0.0037, 0.0151,-0.0094,-0.0117,-0.0107,-0.0171, 0.0126,-1.2708
17-Jan-2019 10:29:10.404,-0.0081,-0.0063,-0.9861, 0.0093, 0.0030, 0.0150,-0.0115,-0.0160,-0.0139,-0.0172, 0.0127,-1.2709
17-Jan-2019 10:29:10.444,-0.0089,-0.0083,-0.9884, 0.0075, 0.0059, 0.0114,-0.0116,-0.0138,-0.0107,-0.0171, 0.0126,-1.2709
17-Jan-2019 10:29:10.484,-0.0076,-0.0099,-0.9895, 0.0086, 0.0031, 0.0123,-0.0084,-0.0138,-0.0107,-0.0171, 0.0127,-1.2709
17-Jan-2019 10:29:10.523,-0.0087,-0.0067,-0.9922, 0.0086, 0.0065, 0.0103,-0.0126,-0.0138,-0.0118,-0.0171, 0.0126,-1.2709
17-Jan-2019 10:29:10.563,-0.0079,-0.0071,-0.9920, 0.0094, 0.0037, 0.0091,-0.0083,-0.0170,-0.0129,-0.0171, 0.0126,-1.2709
17-Jan-2019 10:29:10.603,-0.0064,-0.0109,-0.9877, 0.0086, 0.0025, 0.0091,-0.0084,-0.0127,-0.0128,-0.0170, 0.0126,-1.2709
17-Jan-2019 10:29:10.642,-0.0076,-0.0076,-0.9889, 0.0118, 0.0037, 0.0136,-0.0073,-0.0149,-0.0128,-0.0171, 0.0127,-1.2709
17-Jan-2019 10:29:10.683,-0.0070,-0.0086,-0.9856, 0.0076, 0.0070, 0.0138,-0.0094,-0.0149,-0.0129,-0.0170, 0.0126,-1.2709
17-Jan-2019 10:29:10.722,-0.0110,-0.0129,-0.9805, 0.0084,-0.0038, 0.0185,-0.0094,-0.0170,-0.0118,-0.0171, 0.0126,-1.2709
17-Jan-2019 10:29:10.762,-0.0055,-0.0011,-0.9823, 0.0083, 0.0107, 0.0182,-0.0084,-0.0117,-0.0118,-0.0170, 0.0127,-1.2708
17-Jan-2019 10:29:10.802,-0.0098,-0.0125,-0.9803, 0.0108, 0.0011, 0.0191,-0.0105,-0.0170,-0.0129,-0.0171, 0.0127,-1.2708
17-Jan-2019 10:29:10.842,-0.0087,-0.0060,-0.9816, 0.0050, 0.0031, 0.0170,-0.0094,-0.0170,-0.0129,-0.0171, 0.0127,-1.2709
17-Jan-2019 10:29:10.881,-0.0053,-0.0071,-0.9818, 0.0132, 0.0098, 0.0176,-0.0105,-0.0149,-0.0118,-0.0171, 0.0127,-1.2709
17-Jan-2019 10:29:10.921,-0.0095,-0.0081,-0.9853, 0.0069, 0.0020, 0.0170,-0.0105,-0.0138,-0.0129,-0.0171, 0.0127,-1.2709
17-Jan-2019 10:29:10.961,-0.0057,-0.0088,-0.9939, 0.0111, 0.0068, 0.0106,-0.0094,-0.0149,-0.0107,-0.0171, 0.0127,-1.2709
17-Jan-2019 10:29:11.001,-0.0106,-0.0086,-0.9987, 0.0079, 0.0035, 0.0028,-0.0094,-0.0159,-0.0129,-0.0171, 0.0127,-1.2709
17-Jan-2019 10:29:11.039,-0.0090,-0.0068,-0.9982, 0.0095, 0.0060, 0.0016,-0.0126,-0.0149,-0.0107,-0.0171, 0.0127,-1.2708
17-Jan-2019 10:29:11.080,-0.0081,-0.0108,-0.9904, 0.0092, 0.0045, 0.0059,-0.0116,-0.0117,-0.0107,-0.0171, 0.0127,-1.2708
17-Jan-2019 10:29:11.120,-0.0042,-0.0066,-0.9878, 0.0106, 0.0061, 0.0118,-0.0116,-0.0117,-0.0118,-0.0171, 0.0127,-1.2708
17-Jan-2019 10:29:11.159,-0.0092,-0.0109,-0.9834, 0.0085, 0.0040, 0.0190,-0.0105,-0.0170,-0.0118,-0.0171, 0.0127,-1.2708
17-Jan-2019 10:29:11.199,-0.0103,-0.0085,-0.9796, 0.0073, 0.0012, 0.0188,-0.0105,-0.0160,-0.0118,-0.0172, 0.0127,-1.2708
17-Jan-2019 10:29:11.239,-0.0067,-0.0059,-0.9789, 0.0101, 0.0074, 0.0178,-0.0105,-0.0106,-0.0107,-0.0171, 0.0127,-1.2708
17-Jan-2019 10:29:11.278,-0.0079,-0.0104,-0.9820, 0.0090, 0.0057, 0.0201,-0.0105,-0.0149,-0.0118,-0.0172, 0.0127,-1.2707
17-Jan-2019 10:29:11.318,-0.0093,-0.0059,-0.9841, 0.0077, 0.0026, 0.0175,-0.0115,-0.0170,-0.0107,-0.0172, 0.0126,-1.2707
17-Jan-2019 10:29:11.358,-0.0103,-0.0096,-0.9845, 0.0096, 0.0051, 0.0080,-0.0116,-0.0128,-0.0118,-0.0172, 0.0126,-1.2707
17-Jan-2019 10:29:11.397,-0.0040,-0.0082,-0.9912, 0.0095, 0.0048, 0.0098,-0.0094,-0.0117,-0.0107,-0.0172, 0.0126,-1.2706
17-Jan-2019 10:29:11.437,-0.0069,-0.0094,-0.9924, 0.0114, 0.0040, 0.0135,-0.0115,-0.0170,-0.0107,-0.0172, 0.0126,-1.2706
17-Jan-2019 10:29:11.477,-0.0086,-0.0083,-0.9854, 0.0111, 0.0000, 0.0081,-0.0126,-0.0138,-0.0139,-0.0172, 0.0125,-1.2706
17-Jan-2019 10:29:11.517,-0.0077,-0.0094,-0.9871, 0.0090, 0.0049, 0.0116,-0.0094,-0.0117,-0.0118,-0.0172, 0.0125,-1.2706
17-Jan-2019 10:29:11.556,-0.0079,-0.0091,-0.9871, 0.0085, 0.0074, 0.0188,-0.0105,-0.0149,-0.0118,-0.0172, 0.0125,-1.2706
17-Jan-2019 10:29:11.596,-0.0118,-0.0080,-0.9801, 0.0070, 0.0015, 0.0156,-0.0115,-0.0181,-0.0139,-0.0172, 0.0125,-1.2707
17-Jan-2019 10:29:11.636,-0.0090,-0.0080,-0.9822, 0.0077, 0.0046, 0.0132,-0.0105,-0.0117,-0.0118,-0.0172, 0.0125,-1.2706
17-Jan-2019 10:29:11.676,-0.0081,-0.0092,-0.9879, 0.0086, 0.0041, 0.0157,-0.0105,-0.0160,-0.0118,-0.0172, 0.0124,-1.2706
17-Jan-2019 10:29:11.716,-0.0071,-0.0081,-0.9868, 0.0100, 0.0052, 0.0149,-0.0115,-0.0149,-0.0118,-0.0172, 0.0124,-1.2706
17-Jan-2019 10:29:11.756,-0.0077,-0.0090,-0.9852, 0.0111, 0.0024, 0.0111,-0.0126,-0.0117,-0.0107,-0.0172, 0.0124,-1.2706
17-Jan-2019 10:29:11.795,-0.0054,-0.0085,-0.9876, 0.0094, 0.0036, 0.0122,-0.0115,-0.0149,-0.0118,-0.0172, 0.0124,-1.2706
17-Jan-2019 10:29:11.835,-0.0089,-0.0089,-0.9872, 0.0080, 0.0037, 0.0119,-0.0105,-0.0138,-0.0129,-0.0172, 0.0124,-1.2706
17-Jan-2019 10:29:11.875,-0.0112,-0.0079,-0.9874, 0.0078, 0.0042, 0.0125,-0.0116,-0.0117,-0.0097,-0.0171, 0.0124,-1.2706
17-Jan-2019 10:29:11.914,-0.0087,-0.0087,-0.9865, 0.0074, 0.0049, 0.0134,-0.0084,-0.0128,-0.0107,-0.0171, 0.0124,-1.2706
17-Jan-2019 10:29:11.954,-0.0066,-0.0083,-0.9863, 0.0104, 0.0033, 0.0148,-0.0084,-0.0128,-0.0118,-0.0171, 0.0124,-1.2706
17-Jan-2019 10:29:11.994,-0.0068,-0.0082,-0.9843, 0.0114, 0.0030, 0.0125,-0.0105,-0.0160,-0.0107,-0.0171, 0.0124,-1.2706
17-Jan-2019 10:29:12.033,-0.0085,-0.0086,-0.9851, 0.0085, 0.0046, 0.0130,-0.0084,-0.0117,-0.0107,-0.0171, 0.0124,-1.2706
17-Jan-2019 10:29:12.073,-0.0076,-0.0083,-0.9857, 0.0096, 0.0036, 0.0137,-0.0084,-0.0138,-0.0129,-0.0171, 0.0124,-1.2706
17-Jan-2019 10:29:12.113,-0.0064,-0.0087,-0.9860, 0.0109, 0.0038, 0.0137,-0.0105,-0.0128,-0.0118,-0.0171, 0.0125,-1.2706
17-Jan-2019 10:29:12.153,-0.0077,-0.0078,-0.9864, 0.0094, 0.0047, 0.0129,-0.0094,-0.0149,-0.0107,-0.0171, 0.0125,-1.2705
17-Jan-2019 10:29:12.192,-0.0085,-0.0085,-0.9848, 0.0073, 0.0050, 0.0141,-0.0105,-0.0149,-0.0118,-0.0171, 0.0125,-1.2705
17-Jan-2019 10:29:12.232,-0.0061,-0.0079,-0.9850, 0.0104, 0.0027, 0.0127,-0.0105,-0.0160,-0.0118,-0.0171, 0.0125,-1.2705
17-Jan-2019 10:29:12.273,-0.0069,-0.0090,-0.9852, 0.0092, 0.0045, 0.0117,-0.0116,-0.0128,-0.0118,-0.0171, 0.0125,-1.2705
17-Jan-2019 10:29:12.313,-0.0086,-0.0086,-0.9849, 0.0084, 0.0043, 0.0147,-0.0094,-0.0149,-0.0107,-0.0171, 0.0125,-1.2705
17-Jan-2019 10:29:12.351,-0.0091,-0.0065,-0.9863, 0.0090, 0.0042, 0.0113,-0.0084,-0.0138,-0.0118,-0.0171, 0.0125,-1.2704
17-Jan-2019 10:29:12.390,-0.0085,-0.0085,-0.9886, 0.0070, 0.0051, 0.0140,-0.0094,-0.0138,-0.0129,-0.0171, 0.0125,-1.2704
17-Jan-2019 10:29:12.433,-0.0080,-0.0087,-0.9854, 0.0103, 0.0047, 0.0128,-0.0105,-0.0149,-0.0118,-0.0170, 0.0125,-1.2704
17-Jan-2019 10:29:12.472,-0.0077,-0.0071,-0.9871, 0.0084, 0.0032, 0.0146,-0.0094,-0.0149,-0.0118,-0.0170, 0.0125,-1.2703
17-Jan-2019 10:29:12.512,-0.0059,-0.0092,-0.9858, 0.0096, 0.0043, 0.0127,-0.0105,-0.0117,-0.0118,-0.0170, 0.0125,-1.2703
17-Jan-2019 10:29:12.551,-0.0074,-0.0080,-0.9858, 0.0098, 0.0035, 0.0162,-0.0115,-0.0149,-0.0118,-0.0170, 0.0125,-1.2703
17-Jan-2019 10:29:12.590,-0.0082,-0.0075,-0.9859, 0.0100, 0.0046, 0.0122,-0.0094,-0.0128,-0.0118,-0.0170, 0.0125,-1.2703
17-Jan-2019 10:29:12.630,-0.0082,-0.0081,-0.9879, 0.0086, 0.0047, 0.0164,-0.0105,-0.0149,-0.0118,-0.0170, 0.0125,-1.2703
17-Jan-2019 10:29:12.670,-0.0082,-0.0083,-0.9845, 0.0083, 0.0045, 0.0135,-0.0105,-0.0149,-0.0118,-0.0170, 0.0125,-1.2703
17-Jan-2019 10:29:12.709,-0.0070,-0.0081,-0.9840, 0.0105, 0.0032, 0.0154,-0.0137,-0.0138,-0.0129,-0.0170, 0.0125,-1.2703
17-Jan-2019 10:29:12.748,-0.0102,-0.0065,-0.9844, 0.0086, 0.0059, 0.0155,-0.0105,-0.0170,-0.0118,-0.0171, 0.0125,-1.2702
17-Jan-2019 10:29:12.788,-0.0085,-0.0098,-0.9848, 0.0099, 0.0015, 0.0132,-0.0105,-0.0128,-0.0118,-0.0171, 0.0125,-1.2702
17-Jan-2019 10:29:12.828,-0.0083,-0.0063,-0.9851, 0.0095, 0.0042, 0.0114,-0.0105,-0.0128,-0.0118,-0.0170, 0.0125,-1.2702
17-Jan-2019 10:29:12.868,-0.0063,-0.0054,-0.9863, 0.0110, 0.0058, 0.0115,-0.0084,-0.0128,-0.0118,-0.0170, 0.0124,-1.2702
17-Jan-2019 10:29:12.908,-0.0092,-0.0087,-0.9845, 0.0082, 0.0037, 0.0150,-0.0105,-0.0149,-0.0107,-0.0170, 0.0124,-1.2702
17-Jan-2019 10:29:12.947,-0.0071,-0.0075,-0.9872, 0.0078, 0.0030, 0.0128,-0.0084,-0.0117,-0.0118,-0.0170, 0.0124,-1.2702
17-Jan-2019 10:29:12.987,-0.0081,-0.0069,-0.9865, 0.0084, 0.0049, 0.0129,-0.0105,-0.0149,-0.0097,-0.0170, 0.0124,-1.2701
17-Jan-2019 10:29:13.026,-0.0077,-0.0081,-0.9835, 0.0096, 0.0029, 0.0151,-0.0094,-0.0160,-0.0118,-0.0171, 0.0124,-1.2701
17-Jan-2019 10:29:13.067,-0.0065,-0.0073,-0.9835, 0.0087, 0.0042, 0.0152,-0.0126,-0.0149,-0.0129,-0.0171, 0.0124,-1.2701
17-Jan-2019 10:29:13.106,-0.0082,-0.0093,-0.9838, 0.0101, 0.0024, 0.0159,-0.0115,-0.0149,-0.0129,-0.0171, 0.0123,-1.2701
17-Jan-2019 10:29:13.145,-0.0078,-0.0062,-0.9818, 0.0086, 0.0056, 0.0166,-0.0105,-0.0128,-0.0118,-0.0170, 0.0123,-1.2701
17-Jan-2019 10:29:13.186,-0.0080,-0.0072,-0.9835, 0.0087, 0.0049, 0.0154,-0.0094,-0.0149,-0.0129,-0.0171, 0.0123,-1.2701
17-Jan-2019 10:29:13.225,-0.0100,-0.0109,-0.9865, 0.0079, 0.0020, 0.0143,-0.0105,-0.0149,-0.0118,-0.0171, 0.0123,-1.2701
17-Jan-2019 10:29:13.266,-0.0087,-0.0061,-0.9849, 0.0083, 0.0029, 0.0129,-0.0116,-0.0117,-0.0107,-0.0171, 0.0123,-1.2700
17-Jan-2019 10:29:13.305,-0.0045,-0.0065,-0.9842, 0.0119, 0.0060, 0.0121,-0.0126,-0.0160,-0.0129,-0.0171, 0.0123,-1.2700
17-Jan-2019 10:29:13.344,-0.0100,-0.0085,-0.9851, 0.0077, 0.0034, 0.0123,-0.0105,-0.0149,-0.0118,-0.0171, 0.0122,-1.2700
17-Jan-2019 10:29:13.389,-0.0070,-0.0084,-0.9883, 0.0100, 0.0038, 0.0115,-0.0105,-0.0138,-0.0107,-0.0171, 0.0122,-1.2700
17-Jan-2019 10:29:13.424,-0.0090,-0.0074,-0.9857, 0.0099, 0.0027, 0.0115,-0.0094,-0.0159,-0.0129,-0.0171, 0.0122,-1.2700
17-Jan-2019 10:29:13.464,-0.0071,-0.0082,-0.9858, 0.0085, 0.0046, 0.0144,-0.0084,-0.0117,-0.0128,-0.0171, 0.0122,-1.2700
17-Jan-2019 10:29:13.504,-0.0069,-0.0086,-0.9848, 0.0114, 0.0035, 0.0167,-0.0094,-0.0149,-0.0129,-0.0171, 0.0122,-1.2701
17-Jan-2019 10:29:13.544,-0.0104,-0.0056,-0.9820, 0.0081, 0.0037, 0.0166,-0.0094,-0.0128,-0.0118,-0.0171, 0.0122,-1.2701
17-Jan-2019 10:29:13.583,-0.0087,-0.0090,-0.9838, 0.0076, 0.0044, 0.0153,-0.0094,-0.0128,-0.0118,-0.0170, 0.0122,-1.2701
17-Jan-2019 10:29:13.623,-0.0071,-0.0070,-0.9842, 0.0108, 0.0058, 0.0144,-0.0105,-0.0128,-0.0107,-0.0170, 0.0122,-1.2700
17-Jan-2019 10:29:13.663,-0.0075,-0.0095,-0.9862, 0.0099, 0.0040, 0.0138,-0.0105,-0.0149,-0.0107,-0.0171, 0.0122,-1.2700
17-Jan-2019 10:29:13.702,-0.0086,-0.0074,-0.9872, 0.0082, 0.0055, 0.0113,-0.0094,-0.0138,-0.0107,-0.0171, 0.0122,-1.2700
17-Jan-2019 10:29:13.742,-0.0075,-0.0104,-0.9870, 0.0106, 0.0040, 0.0124,-0.0105,-0.0128,-0.0118,-0.0170, 0.0122,-1.2700
17-Jan-2019 10:29:13.781,-0.0069,-0.0078,-0.9864, 0.0091, 0.0034, 0.0129,-0.0105,-0.0170,-0.0118,-0.0171, 0.0121,-1.2700
17-Jan-2019 10:29:13.821,-0.0066,-0.0092,-0.9881, 0.0113, 0.0059, 0.0122,-0.0105,-0.0160,-0.0107,-0.0171, 0.0121,-1.2700
17-Jan-2019 10:29:13.861,-0.0092,-0.0094,-0.9885, 0.0087, 0.0031, 0.0129,-0.0105,-0.0170,-0.0118,-0.0171, 0.0121,-1.2700
17-Jan-2019 10:29:13.901,-0.0079,-0.0069,-0.9836, 0.0102, 0.0039, 0.0156,-0.0094,-0.0170,-0.0118,-0.0171, 0.0121,-1.2700
17-Jan-2019 10:29:13.941,-0.0070,-0.0065,-0.9805, 0.0125, 0.0062, 0.0177,-0.0105,-0.0149,-0.0118,-0.0171, 0.0121,-1.2700
17-Jan-2019 10:29:13.980,-0.0111,-0.0108,-0.9818, 0.0057, 0.0002, 0.0175,-0.0084,-0.0149,-0.0107,-0.0171, 0.0121,-1.2700
17-Jan-2019 10:29:14.019,-0.0069,-0.0057,-0.9854, 0.0110, 0.0060, 0.0131,-0.0105,-0.0160,-0.0129,-0.0171, 0.0122,-1.2700
17-Jan-2019 10:29:14.060,-0.0073,-0.0091,-0.9862, 0.0100, 0.0036, 0.0124,-0.0094,-0.0128,-0.0107,-0.0171, 0.0122,-1.2700
17-Jan-2019 10:29:14.100,-0.0115,-0.0063,-0.9883, 0.0074, 0.0047, 0.0107,-0.0105,-0.0128,-0.0129,-0.0171, 0.0122,-1.2700
17-Jan-2019 10:29:14.139,-0.0071,-0.0109,-0.9877, 0.0094, 0.0021, 0.0123,-0.0084,-0.0138,-0.0107,-0.0171, 0.0122,-1.2700
17-Jan-2019 10:29:14.179,-0.0083,-0.0077,-0.9880, 0.0090, 0.0053, 0.0154,-0.0115,-0.0138,-0.0129,-0.0172, 0.0122,-1.2700
17-Jan-2019 10:29:14.219,-0.0075,-0.0083,-0.9840, 0.0091, 0.0026, 0.0166,-0.0116,-0.0128,-0.0118,-0.0172, 0.0122,-1.2700
17-Jan-2019 10:29:14.259,-0.0092,-0.0103,-0.9869, 0.0075, 0.0040, 0.0163,-0.0115,-0.0160,-0.0118,-0.0172, 0.0122,-1.2700
17-Jan-2019 10:29:14.298,-0.0076,-0.0078,-0.9883, 0.0096, 0.0038, 0.0112,-0.0094,-0.0138,-0.0118,-0.0172, 0.0122,-1.2700
17-Jan-2019 10:29:14.337,-0.0072,-0.0086,-0.9857, 0.0124, 0.0047, 0.0127,-0.0094,-0.0149,-0.0118,-0.0172, 0.0122,-1.2699
17-Jan-2019 10:29:14.378,-0.0096,-0.0081,-0.9831, 0.0075, 0.0041, 0.0167,-0.0105,-0.0149,-0.0107,-0.0172, 0.0122,-1.2700
17-Jan-2019 10:29:14.418,-0.0079,-0.0094,-0.9823, 0.0099, 0.0037, 0.0176,-0.0094,-0.0138,-0.0118,-0.0172, 0.0122,-1.2700
17-Jan-2019 10:29:14.457,-0.0094,-0.0055,-0.9845, 0.0072, 0.0040, 0.0176,-0.0105,-0.0160,-0.0129,-0.0172, 0.0122,-1.2700
17-Jan-2019 10:29:14.497,-0.0076,-0.0103,-0.9824, 0.0100, 0.0017, 0.0172,-0.0083,-0.0170,-0.0118,-0.0172, 0.0122,-1.2700
17-Jan-2019 10:29:14.537,-0.0093,-0.0095,-0.9898, 0.0072, 0.0034, 0.0122,-0.0094,-0.0170,-0.0118,-0.0173, 0.0122,-1.2700
17-Jan-2019 10:29:14.577,-0.0096,-0.0079,-0.9943, 0.0081, 0.0032, 0.0064,-0.0094,-0.0138,-0.0129,-0.0173, 0.0123,-1.2700
17-Jan-2019 10:29:14.616,-0.0098,-0.0114,-0.9911, 0.0157, 0.0039, 0.0065,-0.0105,-0.0160,-0.0118,-0.0173, 0.0123,-1.2700
17-Jan-2019 10:29:14.656,-0.0065,-0.0075,-0.9870, 0.0084, 0.0041, 0.0130,-0.0105,-0.0138,-0.0107,-0.0173, 0.0123,-1.2700
17-Jan-2019 10:29:14.696,-0.0098,-0.0092,-0.9829, 0.0078, 0.0043, 0.0170,-0.0105,-0.0128,-0.0107,-0.0173, 0.0123,-1.2700
17-Jan-2019 10:29:14.735,-0.0072,-0.0070,-0.9848, 0.0078, 0.0024, 0.0186,-0.0084,-0.0117,-0.0128,-0.0173, 0.0123,-1.2700
17-Jan-2019 10:29:14.775,-0.0096,-0.0108,-0.9851, 0.0100, 0.0044, 0.0174,-0.0115,-0.0149,-0.0107,-0.0173, 0.0123,-1.2700
17-Jan-2019 10:29:14.815,-0.0076,-0.0078,-0.9867, 0.0080, 0.0025, 0.0159,-0.0105,-0.0181,-0.0118,-0.0173, 0.0123,-1.2700
17-Jan-2019 10:29:14.854,-0.0079,-0.0070,-0.9886, 0.0108, 0.0056, 0.0132,-0.0094,-0.0138,-0.0107,-0.0173, 0.0123,-1.2700
17-Jan-2019 10:29:14.894,-0.0089,-0.0102,-0.9877, 0.0080, 0.0023, 0.0147,-0.0105,-0.0138,-0.0129,-0.0173, 0.0123,-1.2700
17-Jan-2019 10:29:14.934,-0.0081,-0.0069,-0.9855, 0.0078, 0.0062, 0.0144,-0.0094,-0.0138,-0.0129,-0.0173, 0.0123,-1.2700
17-Jan-2019 10:29:14.974,-0.0090,-0.0070,-0.9858, 0.0092, 0.0048, 0.0138,-0.0094,-0.0138,-0.0118,-0.0173, 0.0123,-1.2700
17-Jan-2019 10:29:15.013,-0.0077,-0.0085,-0.9845, 0.0100, 0.0033, 0.0153,-0.0116,-0.0128,-0.0118,-0.0173, 0.0123,-1.2700
17-Jan-2019 10:29:15.053,-0.0095,-0.0104,-0.9841, 0.0084, 0.0042, 0.0151,-0.0073,-0.0127,-0.0118,-0.0173, 0.0123,-1.2700
17-Jan-2019 10:29:15.093,-0.0063,-0.0042,-0.9887, 0.0095, 0.0054, 0.0140,-0.0115,-0.0149,-0.0129,-0.0173, 0.0123,-1.2701
17-Jan-2019 10:29:15.132,-0.0080,-0.0104,-0.9859, 0.0107, 0.0014, 0.0121,-0.0115,-0.0138,-0.0129,-0.0173, 0.0123,-1.2701
17-Jan-2019 10:29:15.171,-0.0079,-0.0074,-0.9909, 0.0065, 0.0057, 0.0123,-0.0105,-0.0149,-0.0107,-0.0174, 0.0123,-1.2701
17-Jan-2019 10:29:15.211,-0.0085,-0.0084,-0.9847, 0.0112, 0.0021, 0.0123,-0.0115,-0.0138,-0.0129,-0.0173, 0.0122,-1.2701
17-Jan-2019 10:29:15.252,-0.0076,-0.0094,-0.9880, 0.0068, 0.0046, 0.0145,-0.0084,-0.0138,-0.0118,-0.0174, 0.0123,-1.2701
17-Jan-2019 10:29:15.291,-0.0097,-0.0073,-0.9849, 0.0092, 0.0020, 0.0126,-0.0105,-0.0160,-0.0107,-0.0174, 0.0123,-1.2700
17-Jan-2019 10:29:15.331,-0.0079,-0.0101,-0.9859, 0.0075, 0.0043, 0.0136,-0.0116,-0.0138,-0.0118,-0.0174, 0.0123,-1.2700
17-Jan-2019 10:29:15.370,-0.0092,-0.0070,-0.9849, 0.0101, 0.0033, 0.0123,-0.0115,-0.0138,-0.0129,-0.0174, 0.0123,-1.2700
17-Jan-2019 10:29:15.411,-0.0092,-0.0094,-0.9866, 0.0081, 0.0040, 0.0135,-0.0105,-0.0149,-0.0118,-0.0174, 0.0123,-1.2700
17-Jan-2019 10:29:15.450,-0.0085,-0.0079,-0.9846, 0.0091, 0.0038, 0.0135,-0.0094,-0.0138,-0.0118,-0.0173, 0.0123,-1.2700
17-Jan-2019 10:29:15.490,-0.0089,-0.0081,-0.9863, 0.0095, 0.0044, 0.0139,-0.0105,-0.0149,-0.0118,-0.0174, 0.0123,-1.2700
17-Jan-2019 10:29:15.530,-0.0110,-0.0089,-0.9863, 0.0070, 0.0034, 0.0140,-0.0115,-0.0149,-0.0129,-0.0173, 0.0123,-1.2700
17-Jan-2019 10:29:15.570,-0.0065,-0.0093,-0.9858, 0.0101, 0.0048, 0.0141,-0.0105,-0.0149,-0.0118,-0.0173, 0.0123,-1.2700
17-Jan-2019 10:29:15.610,-0.0072,-0.0088,-0.9861, 0.0093, 0.0044, 0.0136,-0.0105,-0.0128,-0.0129,-0.0173, 0.0123,-1.2701
17-Jan-2019 10:29:15.650,-0.0094,-0.0073,-0.9855, 0.0091, 0.0037, 0.0147,-0.0115,-0.0170,-0.0118,-0.0173, 0.0123,-1.2701
17-Jan-2019 10:29:15.689,-0.0072,-0.0100,-0.9845, 0.0082, 0.0037, 0.0143,-0.0105,-0.0128,-0.0107,-0.0173, 0.0123,-1.2701
17-Jan-2019 10:29:15.729,-0.0080,-0.0065,-0.9862, 0.0100, 0.0046, 0.0141,-0.0094,-0.0149,-0.0139,-0.0173, 0.0123,-1.2701
17-Jan-2019 10:29:15.768,-0.0089,-0.0084,-0.9858, 0.0090, 0.0029, 0.0149,-0.0105,-0.0149,-0.0107,-0.0173, 0.0123,-1.2701
17-Jan-2019 10:29:15.808,-0.0099,-0.0105,-0.9865, 0.0064, 0.0033, 0.0124,-0.0094,-0.0117,-0.0118,-0.0172, 0.0123,-1.2701
17-Jan-2019 10:29:15.848,-0.0088,-0.0072,-0.9870, 0.0073, 0.0028, 0.0142,-0.0105,-0.0159,-0.0139,-0.0172, 0.0122,-1.2701
17-Jan-2019 10:29:15.888,-0.0079,-0.0096,-0.9876, 0.0092, 0.0046, 0.0132,-0.0105,-0.0138,-0.0129,-0.0172, 0.0122,-1.2701
17-Jan-2019 10:29:15.927,-0.0071,-0.0102,-0.9854, 0.0103, 0.0031, 0.0145,-0.0105,-0.0149,-0.0118,-0.0172, 0.0122,-1.2701
17-Jan-2019 10:29:15.967,-0.0069,-0.0066,-0.9891, 0.0100, 0.0029, 0.0124,-0.0116,-0.0138,-0.0118,-0.0172, 0.0122,-1.2701
17-Jan-2019 10:29:16.007,-0.0109,-0.0066,-0.9855, 0.0072, 0.0071, 0.0110,-0.0126,-0.0117,-0.0129,-0.0172, 0.0121,-1.2701
17-Jan-2019 10:29:16.046,-0.0100,-0.0093,-0.9842, 0.0073, 0.0024, 0.0152,-0.0094,-0.0138,-0.0129,-0.0172, 0.0121,-1.2701
17-Jan-2019 10:29:16.086,-0.0064,-0.0081,-0.9832, 0.0106, 0.0027, 0.0131,-0.0105,-0.0149,-0.0129,-0.0172, 0.0121,-1.2701
17-Jan-2019 10:29:16.126,-0.0123,-0.0070,-0.9849, 0.0055, 0.0058, 0.0143,-0.0116,-0.0128,-0.0118,-0.0172, 0.0120,-1.2701
17-Jan-2019 10:29:16.166,-0.0056,-0.0083,-0.9852, 0.0078, 0.0034, 0.0153,-0.0105,-0.0160,-0.0118,-0.0172, 0.0120,-1.2701
17-Jan-2019 10:29:16.205,-0.0087,-0.0082,-0.9861, 0.0087, 0.0059, 0.0137,-0.0094,-0.0128,-0.0107,-0.0172, 0.0120,-1.2701
17-Jan-2019 10:29:16.244,-0.0064,-0.0079,-0.9880, 0.0102, 0.0043, 0.0135,-0.0115,-0.0149,-0.0129,-0.0172, 0.0119,-1.2701
17-Jan-2019 10:29:16.284,-0.0102,-0.0063,-0.9889, 0.0060, 0.0034, 0.0122,-0.0105,-0.0149,-0.0107,-0.0172, 0.0119,-1.2701
17-Jan-2019 10:29:16.324,-0.0089,-0.0114,-0.9878, 0.0082, 0.0029, 0.0121,-0.0094,-0.0159,-0.0139,-0.0171, 0.0119,-1.2701
17-Jan-2019 10:29:16.363,-0.0076,-0.0066,-0.9880, 0.0124, 0.0036, 0.0113,-0.0115,-0.0181,-0.0129,-0.0171, 0.0118,-1.2701
17-Jan-2019 10:29:16.403,-0.0091,-0.0099,-0.9854, 0.0073, 0.0039, 0.0135,-0.0084,-0.0127,-0.0128,-0.0171, 0.0118,-1.2701
17-Jan-2019 10:29:16.443,-0.0087,-0.0067,-0.9871, 0.0095, 0.0037, 0.0136,-0.0105,-0.0117,-0.0118,-0.0171, 0.0118,-1.2700
17-Jan-2019 10:29:16.483,-0.0099,-0.0088,-0.9838, 0.0083, 0.0022, 0.0137,-0.0094,-0.0138,-0.0118,-0.0171, 0.0118,-1.2700
17-Jan-2019 10:29:16.523,-0.0070,-0.0080,-0.9822, 0.0084, 0.0053, 0.0173,-0.0083,-0.0160,-0.0107,-0.0170, 0.0118,-1.2700
17-Jan-2019 10:29:16.563,-0.0104,-0.0072,-0.9854, 0.0078, 0.0040, 0.0143,-0.0126,-0.0149,-0.0118,-0.0170, 0.0118,-1.2700
17-Jan-2019 10:29:16.602,-0.0080,-0.0086,-0.9845, 0.0080, 0.0018, 0.0143,-0.0105,-0.0128,-0.0118,-0.0170, 0.0118,-1.2700
17-Jan-2019 10:29:16.643,-0.0086,-0.0060,-0.9887, 0.0084, 0.0063, 0.0108,-0.0094,-0.0149,-0.0139,-0.0170, 0.0118,-1.2700
17-Jan-2019 10:29:16.682,-0.0107,-0.0099,-0.9897, 0.0077, 0.0034, 0.0101,-0.0083,-0.0149,-0.0139,-0.0170, 0.0118,-1.2700
17-Jan-2019 10:29:16.722,-0.0086,-0.0073,-0.9873, 0.0072, 0.0026, 0.0137,-0.0094,-0.0181,-0.0118,-0.0170, 0.0118,-1.2700
17-Jan-2019 10:29:16.761,-0.0071,-0.0094,-0.9870, 0.0104, 0.0028, 0.0152,-0.0115,-0.0149,-0.0129,-0.0170, 0.0118,-1.2700
17-Jan-2019 10:29:16.801,-0.0106,-0.0090,-0.9867, 0.0063, 0.0051, 0.0122,-0.0105,-0.0128,-0.0129,-0.0170, 0.0118,-1.2700
17-Jan-2019 10:29:16.841,-0.0078,-0.0069,-0.9875, 0.0091, 0.0037, 0.0107,-0.0105,-0.0138,-0.0118,-0.0170, 0.0118,-1.2700
17-Jan-2019 10:29:16.881,-0.0112,-0.0082,-0.9872, 0.0057, 0.0049, 0.0116,-0.0084,-0.0149,-0.0118,-0.0170, 0.0118,-1.2700
17-Jan-2019 10:29:16.921,-0.0100,-0.0084,-0.9851, 0.0074, 0.0036, 0.0146,-0.0083,-0.0149,-0.0129,-0.0170, 0.0118,-1.2700
17-Jan-2019 10:29:16.961,-0.0062,-0.0075,-0.9856, 0.0100, 0.0051, 0.0150,-0.0094,-0.0149,-0.0118,-0.0170, 0.0118,-1.2701
17-Jan-2019 10:29:17.000,-0.0092,-0.0098,-0.9824, 0.0091, 0.0040, 0.0167,-0.0094,-0.0128,-0.0118,-0.0170, 0.0118,-1.2700
17-Jan-2019 10:29:17.039,-0.0104,-0.0077,-0.9846, 0.0081, 0.0028, 0.0151,-0.0115,-0.0149,-0.0107,-0.0170, 0.0118,-1.2700
17-Jan-2019 10:29:17.079,-0.0091,-0.0072,-0.9868, 0.0088, 0.0068, 0.0120,-0.0115,-0.0160,-0.0118,-0.0170, 0.0118,-1.2700
17-Jan-2019 10:29:17.119,-0.0084,-0.0060,-0.9877, 0.0089, 0.0073, 0.0106,-0.0105,-0.0149,-0.0107,-0.0170, 0.0118,-1.2700
17-Jan-2019 10:29:17.158,-0.0121,-0.0109,-0.9865, 0.0059, 0.0012, 0.0122,-0.0126,-0.0149,-0.0129,-0.0169, 0.0118,-1.2700
17-Jan-2019 10:29:17.199,-0.0065,-0.0061,-0.9866, 0.0093, 0.0023, 0.0149,-0.0105,-0.0138,-0.0129,-0.0169, 0.0118,-1.2700
17-Jan-2019 10:29:17.237,-0.0094,-0.0079,-0.9865, 0.0086, 0.0045, 0.0120,-0.0105,-0.0138,-0.0107,-0.0169, 0.0118,-1.2700
17-Jan-2019 10:29:17.277,-0.0122,-0.0075,-0.9852, 0.0084, 0.0020, 0.0113,-0.0105,-0.0181,-0.0129,-0.0169, 0.0118,-1.2700
17-Jan-2019 10:29:17.317,-0.0065,-0.0094,-0.9839, 0.0084, 0.0033, 0.0144,-0.0105,-0.0128,-0.0118,-0.0169, 0.0118,-1.2700
17-Jan-2019 10:29:17.357,-0.0085,-0.0076,-0.9835, 0.0076, 0.0050, 0.0160,-0.0105,-0.0117,-0.0129,-0.0168, 0.0118,-1.2700
17-Jan-2019 10:29:17.397,-0.0099,-0.0058,-0.9856, 0.0100, 0.0029, 0.0150,-0.0126,-0.0149,-0.0118,-0.0169, 0.0118,-1.2700
17-Jan-2019 10:29:17.436,-0.0082,-0.0118,-0.9880, 0.0066, 0.0015, 0.0137,-0.0094,-0.0159,-0.0129,-0.0168, 0.0118,-1.2700
17-Jan-2019 10:29:17.476,-0.0052,-0.0056,-0.9896, 0.0103, 0.0062, 0.0116,-0.0105,-0.0160,-0.0129,-0.0169, 0.0118,-1.2700
17-Jan-2019 10:29:17.516,-0.0106,-0.0098,-0.9862, 0.0057, 0.0040, 0.0122,-0.0073,-0.0138,-0.0128,-0.0169, 0.0118,-1.2700
17-Jan-2019 10:29:17.556,-0.0096,-0.0047,-0.9854, 0.0087, 0.0070, 0.0123,-0.0084,-0.0138,-0.0118,-0.0169, 0.0118,-1.2700
17-Jan-2019 10:29:17.595,-0.0099,-0.0087,-0.9847, 0.0097, 0.0015, 0.0164,-0.0105,-0.0160,-0.0129,-0.0169, 0.0118,-1.2700
17-Jan-2019 10:29:17.636,-0.0055,-0.0078,-0.9867, 0.0086, 0.0057, 0.0125,-0.0094,-0.0138,-0.0129,-0.0168, 0.0119,-1.2700
17-Jan-2019 10:29:17.675,-0.0093,-0.0084,-0.9863, 0.0086, 0.0041, 0.0110,-0.0094,-0.0138,-0.0118,-0.0168, 0.0119,-1.2700
17-Jan-2019 10:29:17.715,-0.0071,-0.0078,-0.9845, 0.0083, 0.0053, 0.0141,-0.0105,-0.0149,-0.0118,-0.0168, 0.0119,-1.2700
17-Jan-2019 10:29:17.754,-0.0082,-0.0058,-0.9890, 0.0071, 0.0059, 0.0122,-0.0116,-0.0138,-0.0118,-0.0168, 0.0119,-1.2700
17-Jan-2019 10:29:17.795,-0.0125,-0.0101,-0.9878, 0.0075, 0.0016, 0.0114,-0.0083,-0.0160,-0.0107,-0.0168, 0.0119,-1.2700
17-Jan-2019 10:29:17.834,-0.0091,-0.0097,-0.9901, 0.0051,-0.0001, 0.0114,-0.0094,-0.0170,-0.0129,-0.0167, 0.0119,-1.2700
17-Jan-2019 10:29:17.874,-0.0077,-0.0070,-0.9862, 0.0096, 0.0043, 0.0120,-0.0094,-0.0170,-0.0129,-0.0167, 0.0119,-1.2700
17-Jan-2019 10:29:17.914,-0.0091,-0.0069,-0.9851, 0.0091, 0.0046, 0.0156,-0.0094,-0.0149,-0.0118,-0.0168, 0.0120,-1.2700
17-Jan-2019 10:29:17.953,-0.0077,-0.0051,-0.9830, 0.0094, 0.0067, 0.0161,-0.0105,-0.0106,-0.0118,-0.0168, 0.0120,-1.2700
17-Jan-2019 10:29:17.993,-0.0105,-0.0088,-0.9853, 0.0094, 0.0029, 0.0171,-0.0115,-0.0149,-0.0129,-0.0167, 0.0120,-1.2700
17-Jan-2019 10:29:18.035,-0.0085,-0.0073,-0.9859, 0.0076, 0.0024, 0.0140,-0.0105,-0.0170,-0.0129,-0.0167, 0.0120,-1.2700
17-Jan-2019 10:29:18.072,-0.0086,-0.0076,-0.9911, 0.0107, 0.0045, 0.0122,-0.0126,-0.0160,-0.0107,-0.0168, 0.0120,-1.2700
17-Jan-2019 10:29:18.113,-0.0071,-0.0121,-0.9880, 0.0077, 0.0028, 0.0126,-0.0105,-0.0149,-0.0097,-0.0168, 0.0120,-1.2700
17-Jan-2019 10:29:18.153,-0.0105,-0.0056,-0.9897, 0.0064, 0.0044, 0.0147,-0.0105,-0.0128,-0.0129,-0.0167, 0.0120,-1.2700
17-Jan-2019 10:29:18.193,-0.0073,-0.0112,-0.9872, 0.0092, 0.0046, 0.0136,-0.0084,-0.0128,-0.0118,-0.0167, 0.0121,-1.2700
17-Jan-2019 10:29:18.233,-0.0128,-0.0057,-0.9857, 0.0048, 0.0057, 0.0131,-0.0084,-0.0106,-0.0118,-0.0167, 0.0121,-1.2700
17-Jan-2019 10:29:18.272,-0.0042,-0.0085,-0.9861, 0.0121, 0.0044, 0.0136,-0.0084,-0.0128,-0.0107,-0.0166, 0.0121,-1.2700
17-Jan-2019 10:29:18.312,-0.0120,-0.0066,-0.9884, 0.0054, 0.0060, 0.0125,-0.0105,-0.0149,-0.0118,-0.0166, 0.0121,-1.2700
17-Jan-2019 10:29:18.351,-0.0063,-0.0102,-0.9882, 0.0103, 0.0030, 0.0137,-0.0083,-0.0159,-0.0129,-0.0166, 0.0121,-1.2700
17-Jan-2019 10:29:18.390,-0.0116,-0.0083,-0.9863, 0.0060, 0.0039, 0.0114,-0.0094,-0.0149,-0.0107,-0.0166, 0.0121,-1.2700
17-Jan-2019 10:29:18.431,-0.0077,-0.0096,-0.9889, 0.0082, 0.0027, 0.0143,-0.0105,-0.0149,-0.0118,-0.0166, 0.0121,-1.2700
17-Jan-2019 10:29:18.470,-0.0103,-0.0066,-0.9830, 0.0074, 0.0063, 0.0170,-0.0105,-0.0138,-0.0107,-0.0166, 0.0121,-1.2700
17-Jan-2019 10:29:18.510,-0.0080,-0.0074,-0.9834, 0.0086, 0.0051, 0.0182,-0.0105,-0.0181,-0.0129,-0.0166, 0.0121,-1.2700
17-Jan-2019 10:29:18.550,-0.0103,-0.0089,-0.9824, 0.0079, 0.0029, 0.0188,-0.0105,-0.0138,-0.0118,-0.0166, 0.0121,-1.2700
17-Jan-2019 10:29:18.589,-0.0092,-0.0081,-0.9823, 0.0066, 0.0018, 0.0173,-0.0105,-0.0128,-0.0118,-0.0166, 0.0121,-1.2700
17-Jan-2019 10:29:18.629,-0.0088,-0.0056,-0.9851, 0.0073, 0.0040, 0.0172,-0.0105,-0.0138,-0.0129,-0.0166, 0.0121,-1.2700
17-Jan-2019 10:29:18.669,-0.0091,-0.0054,-0.9878, 0.0088, 0.0060, 0.0132,-0.0084,-0.0127,-0.0128,-0.0166, 0.0121,-1.2700
17-Jan-2019 10:29:18.708,-0.0178,-0.0082,-0.9992, 0.0101, 0.0010, 0.0044,-0.0125,-0.0245,-0.0118,-0.0166, 0.0120,-1.2699
17-Jan-2019 10:29:18.748,-0.0118,-0.0053,-1.0056, 0.0131, 0.0025,-0.0034,-0.0168,-0.0277,-0.0129,-0.0166, 0.0120,-1.2700
17-Jan-2019 10:29:18.787,-0.0121,-0.0092,-0.9982, 0.0155,-0.0012,-0.0032,-0.0189,-0.0298,-0.0108,-0.0166, 0.0120,-1.2699
17-Jan-2019 10:29:18.828,-0.0143,-0.0059,-0.9919, 0.0083,-0.0005, 0.0032,-0.0157,-0.0298,-0.0129,-0.0166, 0.0120,-1.2699
17-Jan-2019 10:29:18.867,-0.0139,-0.0080,-0.9857, 0.0122,-0.0005, 0.0045,-0.0178,-0.0298,-0.0108,-0.0166, 0.0120,-1.2699
17-Jan-2019 10:29:18.906,-0.0128,-0.0063,-0.9820, 0.0086,-0.0003, 0.0055,-0.0147,-0.0213,-0.0108,-0.0166, 0.0120,-1.2699
17-Jan-2019 10:29:18.947,-0.0123,-0.0058,-0.9814, 0.0094, 0.0023, 0.0067,-0.0115,-0.0192,-0.0118,-0.0165, 0.0120,-1.2699
17-Jan-2019 10:29:18.987,-0.0125,-0.0056,-0.9798, 0.0070, 0.0035, 0.0060,-0.0094,-0.0117,-0.0118,-0.0165, 0.0120,-1.2699
17-Jan-2019 10:29:19.026,-0.0111,-0.0066,-0.9818, 0.0075, 0.0045, 0.0086,-0.0073,-0.0064,-0.0118,-0.0165, 0.0120,-1.2699
17-Jan-2019 10:29:19.065,-0.0098,-0.0078,-0.9817, 0.0063, 0.0086, 0.0053,-0.0042,-0.0032,-0.0117,-0.0165, 0.0120,-1.2699
17-Jan-2019 10:29:19.105,-0.0095,-0.0087,-0.9838, 0.0077, 0.0029, 0.0107,-0.0084,-0.0021,-0.0128,-0.0164, 0.0120,-1.2699
17-Jan-2019 10:29:19.145,-0.0103,-0.0089,-0.9858, 0.0062, 0.0046, 0.0116,-0.0084,-0.0074,-0.0128,-0.0164, 0.0120,-1.2699
17-Jan-2019 10:29:19.185,-0.0092,-0.0099,-0.9883, 0.0077, 0.0047, 0.0113,-0.0094,-0.0128,-0.0118,-0.0164, 0.0120,-1.2699
17-Jan-2019 10:29:19.224,-0.0096,-0.0074,-0.9872, 0.0077, 0.0022, 0.0127,-0.0094,-0.0181,-0.0129,-0.0164, 0.0120,-1.2699
17-Jan-2019 10:29:19.265,-0.0093,-0.0094,-0.9826, 0.0085, 0.0030, 0.0166,-0.0115,-0.0202,-0.0129,-0.0165, 0.0120,-1.2700
17-Jan-2019 10:29:19.304,-0.0092,-0.0077,-0.9813, 0.0092, 0.0034, 0.0169,-0.0126,-0.0202,-0.0097,-0.0164, 0.0120,-1.2699
17-Jan-2019 10:29:19.344,-0.0106,-0.0090,-0.9793, 0.0072, 0.0043, 0.0162,-0.0115,-0.0160,-0.0129,-0.0164, 0.0120,-1.2699
17-Jan-2019 10:29:19.385,-0.0095,-0.0076,-0.9857, 0.0068, 0.0038, 0.0143,-0.0105,-0.0149,-0.0107,-0.0164, 0.0120,-1.2699
17-Jan-2019 10:29:19.424,-0.0109,-0.0084,-0.9852, 0.0073, 0.0045, 0.0131,-0.0094,-0.0149,-0.0118,-0.0164, 0.0120,-1.2699
17-Jan-2019 10:29:19.463,-0.0087,-0.0083,-0.9868, 0.0072, 0.0041, 0.0117,-0.0105,-0.0128,-0.0118,-0.0164, 0.0120,-1.2699
17-Jan-2019 10:29:19.503,-0.0098,-0.0086,-0.9906, 0.0065, 0.0028, 0.0149,-0.0094,-0.0149,-0.0118,-0.0164, 0.0120,-1.2699
17-Jan-2019 10:29:19.544,-0.0090,-0.0074,-0.9890, 0.0080, 0.0034, 0.0128,-0.0115,-0.0149,-0.0107,-0.0163, 0.0120,-1.2699
17-Jan-2019 10:29:19.583,-0.0111,-0.0073,-0.9872, 0.0064, 0.0060, 0.0149,-0.0105,-0.0160,-0.0118,-0.0163, 0.0120,-1.2699
17-Jan-2019 10:29:19.622,-0.0081,-0.0087,-0.9869, 0.0078, 0.0035, 0.0144,-0.0084,-0.0117,-0.0118,-0.0163, 0.0120,-1.2699
17-Jan-2019 10:29:19.661,-0.0102,-0.0069,-0.9870, 0.0069, 0.0025, 0.0152,-0.0105,-0.0170,-0.0118,-0.0163, 0.0120,-1.2699
17-Jan-2019 10:29:19.701,-0.0091,-0.0073,-0.9852, 0.0078, 0.0041, 0.0145,-0.0116,-0.0117,-0.0118,-0.0163, 0.0120,-1.2699
17-Jan-2019 10:29:19.741,-0.0097,-0.0071,-0.9892, 0.0065, 0.0041, 0.0142,-0.0116,-0.0128,-0.0107,-0.0163, 0.0119,-1.2699
17-Jan-2019 10:29:19.780,-0.0091,-0.0098,-0.9891, 0.0071, 0.0028, 0.0112,-0.0094,-0.0149,-0.0107,-0.0163, 0.0120,-1.2699
17-Jan-2019 10:29:19.820,-0.0093,-0.0069,-0.9900, 0.0064, 0.0033, 0.0129,-0.0094,-0.0160,-0.0118,-0.0163, 0.0120,-1.2699
17-Jan-2019 10:29:19.860,-0.0087,-0.0077,-0.9859, 0.0081, 0.0027, 0.0134,-0.0115,-0.0149,-0.0118,-0.0163, 0.0119,-1.2698
17-Jan-2019 10:29:19.901,-0.0093,-0.0065,-0.9891, 0.0067, 0.0041, 0.0126,-0.0094,-0.0138,-0.0097,-0.0163, 0.0119,-1.2699
17-Jan-2019 10:29:19.940,-0.0091,-0.0093,-0.9843, 0.0075, 0.0032, 0.0122,-0.0116,-0.0128,-0.0129,-0.0163, 0.0119,-1.2699
17-Jan-2019 10:29:19.980,-0.0096,-0.0074,-0.9884, 0.0061, 0.0029, 0.0104,-0.0084,-0.0138,-0.0107,-0.0163, 0.0119,-1.2698
17-Jan-2019 10:29:20.020,-0.0101,-0.0080,-0.9875, 0.0076, 0.0031, 0.0097,-0.0105,-0.0106,-0.0118,-0.0162, 0.0120,-1.2698
17-Jan-2019 10:29:20.059,-0.0095,-0.0079,-0.9891, 0.0064, 0.0041, 0.0116,-0.0094,-0.0128,-0.0097,-0.0162, 0.0120,-1.2698
17-Jan-2019 10:29:20.099,-0.0092,-0.0088,-0.9893, 0.0080, 0.0036, 0.0113,-0.0105,-0.0138,-0.0118,-0.0162, 0.0120,-1.2698
17-Jan-2019 10:29:20.139,-0.0086,-0.0062,-0.9862, 0.0073, 0.0063, 0.0130,-0.0105,-0.0128,-0.0118,-0.0162, 0.0119,-1.2698
17-Jan-2019 10:29:20.178,-0.0071,-0.0049,-0.9879, 0.0105, 0.0053, 0.0133,-0.0116,-0.0128,-0.0097,-0.0162, 0.0119,-1.2698
17-Jan-2019 10:29:20.218,-0.0102,-0.0080,-0.9872, 0.0077, 0.0070, 0.0071,-0.0116,-0.0117,-0.0129,-0.0162, 0.0119,-1.2698
17-Jan-2019 10:29:20.257,-0.0119,-0.0145,-0.9853,-0.0011,-0.0077, 0.0144,-0.0094,-0.0138,-0.0107,-0.0161, 0.0118,-1.2697
17-Jan-2019 10:29:20.298,-0.0081,-0.0056,-0.9887, 0.0077, 0.0057, 0.0081,-0.0115,-0.0149,-0.0129,-0.0162, 0.0119,-1.2697
17-Jan-2019 10:29:20.337,-0.0078,-0.0070,-0.9863, 0.0089, 0.0049, 0.0141,-0.0115,-0.0138,-0.0129,-0.0162, 0.0118,-1.2697
17-Jan-2019 10:29:20.377,-0.0092,-0.0076,-0.9868, 0.0065, 0.0038, 0.0119,-0.0105,-0.0138,-0.0107,-0.0161, 0.0119,-1.2698
17-Jan-2019 10:29:20.416,-0.0113,-0.0125,-0.9863, 0.0056,-0.0022, 0.0171,-0.0126,-0.0170,-0.0129,-0.0161, 0.0118,-1.2698
17-Jan-2019 10:29:20.457,-0.0086,-0.0067,-0.9892, 0.0083, 0.0050, 0.0113,-0.0105,-0.0138,-0.0107,-0.0161, 0.0118,-1.2697
17-Jan-2019 10:29:20.496,-0.0085,-0.0080,-0.9855, 0.0089, 0.0040, 0.0140,-0.0115,-0.0160,-0.0129,-0.0160, 0.0118,-1.2697
17-Jan-2019 10:29:20.536,-0.0100,-0.0075,-0.9837, 0.0045, 0.0020, 0.0148,-0.0105,-0.0138,-0.0107,-0.0160, 0.0118,-1.2698
17-Jan-2019 10:29:20.575,-0.0080,-0.0091,-0.9870, 0.0093, 0.0038, 0.0155,-0.0105,-0.0181,-0.0129,-0.0161, 0.0118,-1.2698
17-Jan-2019 10:29:20.615,-0.0093,-0.0086,-0.9849, 0.0061, 0.0036, 0.0125,-0.0105,-0.0128,-0.0107,-0.0160, 0.0118,-1.2697
17-Jan-2019 10:29:20.655,-0.0085,-0.0065,-0.9848, 0.0067, 0.0027, 0.0146,-0.0105,-0.0128,-0.0118,-0.0160, 0.0117,-1.2697
17-Jan-2019 10:29:20.694,-0.0078,-0.0081,-0.9872, 0.0078, 0.0033, 0.0155,-0.0094,-0.0149,-0.0118,-0.0160, 0.0117,-1.2697
17-Jan-2019 10:29:20.735,-0.0075,-0.0081,-0.9885, 0.0084, 0.0055, 0.0134,-0.0105,-0.0160,-0.0107,-0.0160, 0.0117,-1.2697
17-Jan-2019 10:29:20.774,-0.0086,-0.0081,-0.9902, 0.0049, 0.0051, 0.0127,-0.0105,-0.0128,-0.0118,-0.0160, 0.0117,-1.2697
17-Jan-2019 10:29:20.814,-0.0071,-0.0077,-0.9875, 0.0073, 0.0040, 0.0136,-0.0115,-0.0138,-0.0129,-0.0160, 0.0117,-1.2697
17-Jan-2019 10:29:20.854,-0.0074,-0.0089,-0.9848, 0.0067, 0.0037, 0.0177,-0.0094,-0.0128,-0.0107,-0.0160, 0.0117,-1.2698
17-Jan-2019 10:29:20.894,-0.0095,-0.0067,-0.9892, 0.0068, 0.0037, 0.0143,-0.0105,-0.0170,-0.0118,-0.0160, 0.0117,-1.2698
17-Jan-2019 10:29:20.933,-0.0107,-0.0084,-0.9880, 0.0082, 0.0025, 0.0119,-0.0105,-0.0149,-0.0107,-0.0159, 0.0117,-1.2698
17-Jan-2019 10:29:20.973,-0.0094,-0.0091,-0.9851, 0.0061, 0.0030, 0.0155,-0.0105,-0.0117,-0.0118,-0.0159, 0.0117,-1.2698
17-Jan-2019 10:29:21.013,-0.0085,-0.0082,-0.9878, 0.0063, 0.0058, 0.0114,-0.0084,-0.0128,-0.0118,-0.0159, 0.0117,-1.2698
17-Jan-2019 10:29:21.053,-0.0080,-0.0096,-0.9887, 0.0067, 0.0049, 0.0116,-0.0105,-0.0138,-0.0118,-0.0159, 0.0117,-1.2698
17-Jan-2019 10:29:21.092,-0.0075,-0.0084,-0.9886, 0.0063, 0.0056, 0.0112,-0.0115,-0.0138,-0.0129,-0.0159, 0.0117,-1.2698
17-Jan-2019 10:29:21.132,-0.0096,-0.0082,-0.9865, 0.0054, 0.0031, 0.0139,-0.0126,-0.0128,-0.0118,-0.0158, 0.0117,-1.2698
17-Jan-2019 10:29:21.172,-0.0074,-0.0044,-0.9901, 0.0084, 0.0050, 0.0156,-0.0094,-0.0160,-0.0118,-0.0158, 0.0117,-1.2698
17-Jan-2019 10:29:21.212,-0.0097,-0.0069,-0.9878, 0.0070, 0.0029, 0.0135,-0.0084,-0.0149,-0.0118,-0.0158, 0.0117,-1.2698
17-Jan-2019 10:29:21.251,-0.0082,-0.0067,-0.9840, 0.0091, 0.0050, 0.0143,-0.0105,-0.0128,-0.0139,-0.0158, 0.0117,-1.2698
17-Jan-2019 10:29:21.290,-0.0084,-0.0087,-0.9861, 0.0059, 0.0035, 0.0150,-0.0094,-0.0128,-0.0118,-0.0158, 0.0117,-1.2698
17-Jan-2019 10:29:21.331,-0.0077,-0.0076,-0.9860, 0.0067, 0.0052, 0.0104,-0.0105,-0.0128,-0.0118,-0.0158, 0.0117,-1.2698
17-Jan-2019 10:29:21.370,-0.0090,-0.0071,-0.9918, 0.0052, 0.0044, 0.0104,-0.0094,-0.0159,-0.0129,-0.0158, 0.0117,-1.2698
17-Jan-2019 10:29:21.410,-0.0084,-0.0082,-0.9853, 0.0073, 0.0035, 0.0099,-0.0105,-0.0138,-0.0118,-0.0157, 0.0117,-1.2698
17-Jan-2019 10:29:21.449,-0.0091,-0.0073,-0.9857, 0.0073, 0.0027, 0.0151,-0.0083,-0.0170,-0.0118,-0.0157, 0.0117,-1.2699
17-Jan-2019 10:29:21.489,-0.0070,-0.0072,-0.9822, 0.0073, 0.0024, 0.0134,-0.0105,-0.0138,-0.0129,-0.0157, 0.0117,-1.2699
17-Jan-2019 10:29:21.530,-0.0098,-0.0077,-0.9857, 0.0064, 0.0042, 0.0154,-0.0105,-0.0138,-0.0118,-0.0157, 0.0117,-1.2699
17-Jan-2019 10:29:21.569,-0.0085,-0.0087,-0.9808, 0.0067, 0.0051, 0.0134,-0.0094,-0.0128,-0.0118,-0.0157, 0.0117,-1.2699
17-Jan-2019 10:29:21.609,-0.0089,-0.0059,-0.9841, 0.0087, 0.0055, 0.0156,-0.0105,-0.0160,-0.0118,-0.0157, 0.0117,-1.2698
17-Jan-2019 10:29:21.648,-0.0093,-0.0084,-0.9867, 0.0050, 0.0043, 0.0119,-0.0105,-0.0138,-0.0118,-0.0157, 0.0118,-1.2699
17-Jan-2019 10:29:21.688,-0.0081,-0.0053,-0.9887, 0.0087, 0.0031, 0.0125,-0.0094,-0.0149,-0.0118,-0.0157, 0.0118,-1.2699
17-Jan-2019 10:29:21.728,-0.0072,-0.0072,-0.9884, 0.0075, 0.0054, 0.0107,-0.0094,-0.0149,-0.0118,-0.0157, 0.0118,-1.2699
17-Jan-2019 10:29:21.768,-0.0114,-0.0083,-0.9873, 0.0034, 0.0014, 0.0136,-0.0105,-0.0138,-0.0118,-0.0157, 0.0118,-1.2699
17-Jan-2019 10:29:21.807,-0.0052,-0.0068,-0.9862, 0.0083, 0.0040, 0.0167,-0.0105,-0.0138,-0.0139,-0.0158, 0.0119,-1.2699
17-Jan-2019 10:29:21.847,-0.0097,-0.0073,-0.9842, 0.0067, 0.0037, 0.0172,-0.0105,-0.0138,-0.0107,-0.0158, 0.0119,-1.2699
17-Jan-2019 10:29:21.887,-0.0081,-0.0088,-0.9906, 0.0067, 0.0023, 0.0130,-0.0084,-0.0149,-0.0107,-0.0157, 0.0119,-1.2699
17-Jan-2019 10:29:21.927,-0.0105,-0.0071,-0.9905, 0.0062, 0.0044, 0.0084,-0.0105,-0.0149,-0.0129,-0.0158, 0.0119,-1.2700
17-Jan-2019 10:29:21.966,-0.0084,-0.0088,-0.9896, 0.0060, 0.0035, 0.0126,-0.0084,-0.0138,-0.0118,-0.0158, 0.0119,-1.2700
17-Jan-2019 10:29:22.006,-0.0086,-0.0072,-0.9842, 0.0056, 0.0045, 0.0147,-0.0105,-0.0128,-0.0118,-0.0157, 0.0120,-1.2700
17-Jan-2019 10:29:22.045,-0.0094,-0.0083,-0.9855, 0.0069, 0.0022, 0.0154,-0.0105,-0.0138,-0.0129,-0.0157, 0.0120,-1.2700
17-Jan-2019 10:29:22.086,-0.0092,-0.0080,-0.9883, 0.0060, 0.0029, 0.0149,-0.0094,-0.0170,-0.0129,-0.0157, 0.0120,-1.2700
17-Jan-2019 10:29:22.125,-0.0078,-0.0101,-0.9864, 0.0073, 0.0024, 0.0099,-0.0105,-0.0128,-0.0107,-0.0157, 0.0120,-1.2700
17-Jan-2019 10:29:22.165,-0.0114,-0.0069,-0.9905, 0.0053, 0.0042, 0.0132,-0.0094,-0.0117,-0.0118,-0.0157, 0.0120,-1.2700
17-Jan-2019 10:29:22.204,-0.0078,-0.0074,-0.9869, 0.0066, 0.0054, 0.0113,-0.0116,-0.0128,-0.0118,-0.0157, 0.0120,-1.2700
17-Jan-2019 10:29:22.244,-0.0081,-0.0082,-0.9889, 0.0071, 0.0027, 0.0123,-0.0094,-0.0138,-0.0118,-0.0157, 0.0120,-1.2701
17-Jan-2019 10:29:22.283,-0.0094,-0.0087,-0.9903, 0.0068, 0.0043, 0.0117,-0.0105,-0.0128,-0.0107,-0.0157, 0.0120,-1.2700
17-Jan-2019 10:29:22.323,-0.0083,-0.0062,-0.9886, 0.0060, 0.0053, 0.0093,-0.0094,-0.0138,-0.0107,-0.0157, 0.0120,-1.2701
17-Jan-2019 10:29:22.363,-0.0083,-0.0090,-0.9867, 0.0062, 0.0034, 0.0111,-0.0105,-0.0138,-0.0097,-0.0157, 0.0120,-1.2701
17-Jan-2019 10:29:22.403,-0.0091,-0.0075,-0.9847, 0.0065, 0.0039, 0.0139,-0.0105,-0.0138,-0.0118,-0.0157, 0.0120,-1.2701
17-Jan-2019 10:29:22.443,-0.0077,-0.0076,-0.9863, 0.0070, 0.0044, 0.0108,-0.0094,-0.0138,-0.0118,-0.0157, 0.0120,-1.2701
17-Jan-2019 10:29:22.483,-0.0086,-0.0089,-0.9919, 0.0062, 0.0032, 0.0113,-0.0094,-0.0160,-0.0107,-0.0157, 0.0120,-1.2701
17-Jan-2019 10:29:22.522,-0.0093,-0.0076,-0.9858, 0.0067, 0.0040, 0.0108,-0.0126,-0.0128,-0.0118,-0.0157, 0.0119,-1.2701
17-Jan-2019 10:29:22.562,-0.0078,-0.0084,-0.9881, 0.0078, 0.0032, 0.0131,-0.0105,-0.0160,-0.0107,-0.0157, 0.0119,-1.2701
17-Jan-2019 10:29:22.602,-0.0098,-0.0083,-0.9827, 0.0066, 0.0036, 0.0131,-0.0094,-0.0149,-0.0107,-0.0157, 0.0119,-1.2701
17-Jan-2019 10:29:22.641,-0.0083,-0.0080,-0.9852, 0.0068, 0.0038, 0.0128,-0.0094,-0.0138,-0.0107,-0.0157, 0.0119,-1.2701
17-Jan-2019 10:29:22.682,-0.0099,-0.0085,-0.9896, 0.0067, 0.0032, 0.0152,-0.0105,-0.0149,-0.0118,-0.0157, 0.0119,-1.2701
17-Jan-2019 10:29:22.721,-0.0092,-0.0079,-0.9886, 0.0063, 0.0032, 0.0084,-0.0115,-0.0138,-0.0129,-0.0156, 0.0119,-1.2701
17-Jan-2019 10:29:22.761,-0.0086,-0.0072,-0.9874, 0.0074, 0.0047, 0.0119,-0.0105,-0.0128,-0.0118,-0.0156, 0.0119,-1.2701
17-Jan-2019 10:29:22.800,-0.0100,-0.0070,-0.9854, 0.0055, 0.0034, 0.0134,-0.0105,-0.0160,-0.0129,-0.0156, 0.0119,-1.2701
17-Jan-2019 10:29:22.840,-0.0071,-0.0069,-0.9839, 0.0075, 0.0037, 0.0119,-0.0094,-0.0117,-0.0118,-0.0156, 0.0119,-1.2701
17-Jan-2019 10:29:22.880,-0.0069,-0.0073,-0.9913, 0.0083, 0.0027, 0.0122,-0.0094,-0.0138,-0.0097,-0.0156, 0.0119,-1.2700
17-Jan-2019 10:29:22.920,-0.0091,-0.0087,-1.0026, 0.0061, 0.0032,-0.0002,-0.0094,-0.0159,-0.0129,-0.0156, 0.0119,-1.2701
17-Jan-2019 10:29:22.959,-0.0100,-0.0077,-1.0192, 0.0058, 0.0038,-0.0121,-0.0105,-0.0160,-0.0118,-0.0155, 0.0119,-1.2701
17-Jan-2019 10:29:22.999,-0.0090,-0.0081,-1.0293, 0.0066, 0.0032,-0.0254,-0.0094,-0.0138,-0.0118,-0.0155, 0.0119,-1.2701
17-Jan-2019 10:29:23.039,-0.0100,-0.0080,-1.0318, 0.0056, 0.0028,-0.0335,-0.0105,-0.0138,-0.0129,-0.0156, 0.0119,-1.2701
17-Jan-2019 10:29:23.078,-0.0081,-0.0081,-1.0310, 0.0072, 0.0028,-0.0307,-0.0094,-0.0149,-0.0129,-0.0156, 0.0119,-1.2701
17-Jan-2019 10:29:23.118,-0.0097,-0.0099,-1.0299, 0.0063, 0.0038,-0.0321,-0.0116,-0.0128,-0.0118,-0.0155, 0.0119,-1.2701
17-Jan-2019 10:29:23.158,-0.0084,-0.0085,-1.0289, 0.0066, 0.0035,-0.0245,-0.0105,-0.0160,-0.0118,-0.0156, 0.0119,-1.2701
17-Jan-2019 10:29:23.198,-0.0094,-0.0104,-1.0290, 0.0063, 0.0039,-0.0302,-0.0105,-0.0117,-0.0118,-0.0156, 0.0119,-1.2701
17-Jan-2019 10:29:23.237,-0.0085,-0.0076,-1.0309, 0.0078, 0.0039,-0.0288,-0.0094,-0.0128,-0.0118,-0.0156, 0.0119,-1.2701
17-Jan-2019 10:29:23.277,-0.0107,-0.0103,-1.0293, 0.0057, 0.0039,-0.0329,-0.0084,-0.0117,-0.0128,-0.0156, 0.0119,-1.2701
17-Jan-2019 10:29:23.317,-0.0091,-0.0084,-1.0338, 0.0068, 0.0031,-0.0275,-0.0105,-0.0138,-0.0118,-0.0155, 0.0119,-1.2701
17-Jan-2019 10:29:23.357,-0.0094,-0.0080,-1.0296, 0.0060, 0.0030,-0.0308,-0.0073,-0.0117,-0.0096,-0.0155, 0.0119,-1.2701
17-Jan-2019 10:29:23.396,-0.0123,-0.0089,-1.0308, 0.0076, 0.0042,-0.0314,-0.0094,-0.0138,-0.0107,-0.0156, 0.0119,-1.2701
17-Jan-2019 10:29:23.435,-0.0067,-0.0082,-1.0304, 0.0060, 0.0026,-0.0311,-0.0094,-0.0106,-0.0128,-0.0155, 0.0119,-1.2701
17-Jan-2019 10:29:23.475,-0.0089,-0.0091,-1.0348, 0.0040, 0.0053,-0.0328,-0.0084,-0.0117,-0.0128,-0.0156, 0.0119,-1.2701
17-Jan-2019 10:29:23.515,-0.0080,-0.0094,-1.0352, 0.0100, 0.0027,-0.0333,-0.0105,-0.0160,-0.0129,-0.0156, 0.0119,-1.2701
17-Jan-2019 10:29:23.555,-0.0083,-0.0109,-1.0339, 0.0065, 0.0035,-0.0340,-0.0105,-0.0160,-0.0097,-0.0156, 0.0119,-1.2701
17-Jan-2019 10:29:23.594,-0.0091,-0.0062,-1.0331, 0.0073, 0.0031,-0.0341,-0.0115,-0.0170,-0.0118,-0.0156, 0.0119,-1.2701
17-Jan-2019 10:29:23.634,-0.0094,-0.0088,-1.0314, 0.0070, 0.0035,-0.0326,-0.0094,-0.0149,-0.0097,-0.0156, 0.0119,-1.2701
17-Jan-2019 10:29:23.674,-0.0108,-0.0101,-1.0307, 0.0076, 0.0027,-0.0336,-0.0105,-0.0106,-0.0107,-0.0156, 0.0119,-1.2701
17-Jan-2019 10:29:23.714,-0.0085,-0.0089,-1.0305, 0.0066, 0.0038,-0.0323,-0.0094,-0.0128,-0.0107,-0.0156, 0.0119,-1.2701
17-Jan-2019 10:29:23.753,-0.0107,-0.0084,-1.0310, 0.0055, 0.0032,-0.0322,-0.0105,-0.0138,-0.0118,-0.0156, 0.0119,-1.2701
17-Jan-2019 10:29:23.793,-0.0066,-0.0072,-1.0307, 0.0087, 0.0023,-0.0304,-0.0105,-0.0117,-0.0107,-0.0156, 0.0118,-1.2701
17-Jan-2019 10:29:23.833,-0.0107,-0.0089,-1.0282, 0.0045, 0.0046,-0.0309,-0.0083,-0.0149,-0.0129,-0.0155, 0.0118,-1.2701
17-Jan-2019 10:29:23.873,-0.0093,-0.0100,-1.0282, 0.0068, 0.0022,-0.0280,-0.0094,-0.0138,-0.0118,-0.0155, 0.0118,-1.2701
17-Jan-2019 10:29:23.913,-0.0080,-0.0096,-1.0285, 0.0076, 0.0007,-0.0282,-0.0083,-0.0170,-0.0107,-0.0156, 0.0118,-1.2701
17-Jan-2019 10:29:23.952,-0.0088,-0.0086,-1.0293, 0.0082, 0.0049,-0.0309,-0.0094,-0.0160,-0.0107,-0.0156, 0.0118,-1.2701
17-Jan-2019 10:29:23.992,-0.0084,-0.0077,-1.0287, 0.0060, 0.0054,-0.0315,-0.0105,-0.0149,-0.0107,-0.0156, 0.0118,-1.2701
17-Jan-2019 10:29:24.033,-0.0090,-0.0081,-1.0265, 0.0070, 0.0014,-0.0264,-0.0116,-0.0117,-0.0107,-0.0155, 0.0118,-1.2701
17-Jan-2019 10:29:24.073,-0.0086,-0.0125,-1.0247, 0.0061, 0.0011,-0.0239,-0.0094,-0.0149,-0.0129,-0.0155, 0.0118,-1.2701
17-Jan-2019 10:29:24.111,-0.0103,-0.0088,-1.0237, 0.0063, 0.0044,-0.0248,-0.0115,-0.0138,-0.0129,-0.0156, 0.0117,-1.2701
17-Jan-2019 10:29:24.151,-0.0089,-0.0080,-1.0232, 0.0088, 0.0045,-0.0235,-0.0126,-0.0128,-0.0118,-0.0155, 0.0117,-1.2701
17-Jan-2019 10:29:24.191,-0.0083,-0.0081,-1.0202, 0.0070, 0.0028,-0.0221,-0.0115,-0.0149,-0.0118,-0.0155, 0.0117,-1.2701
17-Jan-2019 10:29:24.232,-0.0101,-0.0086,-1.0172, 0.0049, 0.0025,-0.0172,-0.0105,-0.0128,-0.0107,-0.0155, 0.0117,-1.2701
17-Jan-2019 10:29:24.272,-0.0089,-0.0096,-1.0190, 0.0080, 0.0033,-0.0183,-0.0105,-0.0149,-0.0118,-0.0155, 0.0117,-1.2701
17-Jan-2019 10:29:24.312,-0.0087,-0.0088,-1.0193, 0.0079, 0.0046,-0.0202,-0.0115,-0.0149,-0.0139,-0.0155, 0.0116,-1.2701
17-Jan-2019 10:29:24.350,-0.0091,-0.0077,-1.0175, 0.0068, 0.0042,-0.0184,-0.0094,-0.0117,-0.0118,-0.0155, 0.0116,-1.2701
17-Jan-2019 10:29:24.390,-0.0093,-0.0081,-1.0135, 0.0061, 0.0032,-0.0137,-0.0094,-0.0149,-0.0107,-0.0155, 0.0116,-1.2701
17-Jan-2019 10:29:24.430,-0.0081,-0.0090,-1.0107, 0.0080, 0.0021,-0.0123,-0.0094,-0.0138,-0.0118,-0.0155, 0.0116,-1.2701
17-Jan-2019 10:29:24.469,-0.0087,-0.0086,-1.0072, 0.0065, 0.0035,-0.0084,-0.0073,-0.0149,-0.0128,-0.0155, 0.0116,-1.2701
17-Jan-2019 10:29:24.509,-0.0094,-0.0086,-1.0027, 0.0068, 0.0041,-0.0049,-0.0084,-0.0128,-0.0118,-0.0155, 0.0116,-1.2701
17-Jan-2019 10:29:24.549,-0.0071,-0.0087,-0.9996, 0.0079, 0.0035,-0.0003,-0.0116,-0.0128,-0.0118,-0.0155, 0.0116,-1.2701
17-Jan-2019 10:29:24.588,-0.0106,-0.0079,-0.9937, 0.0040, 0.0054, 0.0053,-0.0094,-0.0117,-0.0107,-0.0155, 0.0116,-1.2701
17-Jan-2019 10:29:24.629,-0.0109,-0.0054,-0.9938, 0.0098, 0.0041, 0.0060,-0.0094,-0.0138,-0.0118,-0.0155, 0.0116,-1.2701
17-Jan-2019 10:29:24.668,-0.0071,-0.0093,-0.9952, 0.0088, 0.0033, 0.0038,-0.0094,-0.0138,-0.0129,-0.0154, 0.0116,-1.2701
17-Jan-2019 10:29:24.708,-0.0088,-0.0067,-0.9942, 0.0060, 0.0048, 0.0061,-0.0094,-0.0138,-0.0118,-0.0154, 0.0116,-1.2701
17-Jan-2019 10:29:24.748,-0.0091,-0.0083,-0.9915, 0.0062, 0.0034, 0.0071,-0.0105,-0.0138,-0.0107,-0.0154, 0.0116,-1.2701
17-Jan-2019 10:29:24.787,-0.0084,-0.0083,-0.9886, 0.0065, 0.0034, 0.0096,-0.0083,-0.0160,-0.0107,-0.0154, 0.0116,-1.2701
17-Jan-2019 10:29:24.827,-0.0082,-0.0072,-0.9850, 0.0071, 0.0040, 0.0130,-0.0116,-0.0138,-0.0118,-0.0154, 0.0116,-1.2701
17-Jan-2019 10:29:24.866,-0.0078,-0.0081,-0.9839, 0.0070, 0.0033, 0.0156,-0.0105,-0.0138,-0.0118,-0.0154, 0.0116,-1.2701
17-Jan-2019 10:29:24.906,-0.0090,-0.0077,-0.9865, 0.0071, 0.0025, 0.0128,-0.0094,-0.0138,-0.0118,-0.0154, 0.0116,-1.2701
17-Jan-2019 10:29:24.946,-0.0083,-0.0086,-0.9894, 0.0061, 0.0034, 0.0111,-0.0105,-0.0149,-0.0118,-0.0154, 0.0116,-1.2701
17-Jan-2019 10:29:24.986,-0.0102,-0.0084,-0.9909, 0.0052, 0.0026, 0.0092,-0.0105,-0.0138,-0.0118,-0.0154, 0.0116,-1.2701
17-Jan-2019 10:29:25.025,-0.0072,-0.0094,-0.9911, 0.0093, 0.0029, 0.0088,-0.0105,-0.0160,-0.0118,-0.0154, 0.0116,-1.2701
17-Jan-2019 10:29:25.065,-0.0082,-0.0083,-0.9893, 0.0066, 0.0028, 0.0101,-0.0105,-0.0149,-0.0129,-0.0154, 0.0116,-1.2701
17-Jan-2019 10:29:25.105,-0.0092,-0.0084,-0.9878, 0.0059, 0.0034, 0.0114,-0.0105,-0.0138,-0.0129,-0.0154, 0.0116,-1.2701
17-Jan-2019 10:29:25.145,-0.0087,-0.0081,-0.9855, 0.0068, 0.0036, 0.0135,-0.0115,-0.0149,-0.0118,-0.0154, 0.0116,-1.2701
17-Jan-2019 10:29:25.184,-0.0078,-0.0071,-0.9856, 0.0068, 0.0046, 0.0142,-0.0105,-0.0138,-0.0118,-0.0153, 0.0116,-1.2701
17-Jan-2019 10:29:25.224,-0.0092,-0.0082,-0.9802, 0.0070, 0.0025, 0.0181,-0.0105,-0.0128,-0.0118,-0.0153, 0.0116,-1.2701
17-Jan-2019 10:29:25.263,-0.0093,-0.0079,-0.9826, 0.0068, 0.0048, 0.0174,-0.0105,-0.0149,-0.0118,-0.0153, 0.0115,-1.2701
17-Jan-2019 10:29:25.304,-0.0073,-0.0073,-0.9873, 0.0076, 0.0027, 0.0133,-0.0094,-0.0138,-0.0139,-0.0153, 0.0115,-1.2701
17-Jan-2019 10:29:25.343,-0.0081,-0.0077,-0.9926, 0.0075, 0.0032, 0.0089,-0.0105,-0.0160,-0.0129,-0.0153, 0.0115,-1.2701
17-Jan-2019 10:29:25.388,-0.0097,-0.0083,-0.9963, 0.0055, 0.0033, 0.0035,-0.0105,-0.0149,-0.0118,-0.0153, 0.0115,-1.2702
17-Jan-2019 10:29:25.423,-0.0080,-0.0091,-0.9934, 0.0066, 0.0022, 0.0045,-0.0116,-0.0128,-0.0107,-0.0152, 0.0115,-1.2702
17-Jan-2019 10:29:25.464,-0.0072,-0.0074,-0.9854, 0.0074, 0.0047, 0.0123,-0.0116,-0.0128,-0.0118,-0.0152, 0.0115,-1.2701
17-Jan-2019 10:29:25.503,-0.0084,-0.0074,-0.9806, 0.0072, 0.0035, 0.0180,-0.0094,-0.0149,-0.0107,-0.0152, 0.0115,-1.2701
17-Jan-2019 10:29:25.543,-0.0080,-0.0087,-0.9779, 0.0076, 0.0017, 0.0211,-0.0116,-0.0128,-0.0118,-0.0152, 0.0115,-1.2701
17-Jan-2019 10:29:25.582,-0.0081,-0.0068,-0.9800, 0.0068, 0.0049, 0.0206,-0.0094,-0.0128,-0.0118,-0.0152, 0.0115,-1.2701
17-Jan-2019 10:29:25.621,-0.0096,-0.0083,-0.9868, 0.0075, 0.0030, 0.0139,-0.0105,-0.0138,-0.0129,-0.0152, 0.0115,-1.2701
17-Jan-2019 10:29:25.661,-0.0084,-0.0083,-0.9931, 0.0072, 0.0019, 0.0073,-0.0105,-0.0138,-0.0118,-0.0152, 0.0115,-1.2701
17-Jan-2019 10:29:25.701,-0.0085,-0.0070,-0.9932, 0.0062, 0.0044, 0.0065,-0.0094,-0.0128,-0.0118,-0.0152, 0.0115,-1.2701
17-Jan-2019 10:29:25.741,-0.0091,-0.0083,-0.9932, 0.0067, 0.0034, 0.0080,-0.0116,-0.0138,-0.0118,-0.0152, 0.0115,-1.2701
17-Jan-2019 10:29:25.780,-0.0090,-0.0088,-0.9899, 0.0061, 0.0027, 0.0087,-0.0105,-0.0160,-0.0129,-0.0152, 0.0115,-1.2701
17-Jan-2019 10:29:25.820,-0.0090,-0.0077,-0.9848, 0.0073, 0.0033, 0.0134,-0.0094,-0.0138,-0.0107,-0.0152, 0.0115,-1.2701
17-Jan-2019 10:29:25.860,-0.0088,-0.0075,-0.9821, 0.0076, 0.0034, 0.0163,-0.0105,-0.0138,-0.0129,-0.0152, 0.0114,-1.2701
17-Jan-2019 10:29:25.900,-0.0092,-0.0076,-0.9814, 0.0064, 0.0035, 0.0179,-0.0094,-0.0138,-0.0129,-0.0152, 0.0114,-1.2701
17-Jan-2019 10:29:25.939,-0.0088,-0.0079,-0.9839, 0.0070, 0.0033, 0.0170,-0.0084,-0.0117,-0.0107,-0.0151, 0.0114,-1.2701
17-Jan-2019 10:29:25.979,-0.0084,-0.0076,-0.9875, 0.0059, 0.0045, 0.0131,-0.0094,-0.0128,-0.0107,-0.0151, 0.0114,-1.2701
17-Jan-2019 10:29:26.019,-0.0081,-0.0080,-0.9895, 0.0075, 0.0033, 0.0105,-0.0105,-0.0149,-0.0118,-0.0152, 0.0114,-1.2701
17-Jan-2019 10:29:26.058,-0.0086,-0.0082,-0.9899, 0.0058, 0.0031, 0.0091,-0.0105,-0.0128,-0.0129,-0.0151, 0.0114,-1.2701
17-Jan-2019 10:29:26.098,-0.0084,-0.0083,-0.9897, 0.0068, 0.0043, 0.0095,-0.0094,-0.0149,-0.0129,-0.0151, 0.0114,-1.2701
17-Jan-2019 10:29:26.138,-0.0091,-0.0077,-0.9894, 0.0071, 0.0036, 0.0100,-0.0105,-0.0149,-0.0118,-0.0152, 0.0114,-1.2701
17-Jan-2019 10:29:26.178,-0.0084,-0.0082,-0.9869, 0.0066, 0.0021, 0.0120,-0.0105,-0.0149,-0.0107,-0.0152, 0.0114,-1.2701
17-Jan-2019 10:29:26.218,-0.0081,-0.0080,-0.9832, 0.0066, 0.0035, 0.0162,-0.0094,-0.0149,-0.0129,-0.0152, 0.0114,-1.2701
17-Jan-2019 10:29:26.257,-0.0085,-0.0082,-0.9827, 0.0070, 0.0029, 0.0166,-0.0094,-0.0128,-0.0107,-0.0152, 0.0114,-1.2701
17-Jan-2019 10:29:26.297,-0.0093,-0.0090,-0.9861, 0.0057, 0.0023, 0.0154,-0.0105,-0.0138,-0.0118,-0.0152, 0.0114,-1.2701
17-Jan-2019 10:29:26.336,-0.0087,-0.0084,-0.9882, 0.0064, 0.0032, 0.0114,-0.0115,-0.0149,-0.0118,-0.0152, 0.0114,-1.2701
17-Jan-2019 10:29:26.376,-0.0085,-0.0093,-0.9873, 0.0069, 0.0035, 0.0130,-0.0105,-0.0149,-0.0107,-0.0152, 0.0114,-1.2701
17-Jan-2019 10:29:26.416,-0.0078,-0.0091,-0.9896, 0.0073, 0.0033, 0.0099,-0.0094,-0.0149,-0.0129,-0.0152, 0.0114,-1.2701
17-Jan-2019 10:29:26.456,-0.0090,-0.0087,-0.9891, 0.0061, 0.0035, 0.0104,-0.0115,-0.0149,-0.0129,-0.0152, 0.0114,-1.2702
17-Jan-2019 10:29:26.496,-0.0091,-0.0072,-0.9852, 0.0069, 0.0035, 0.0135,-0.0105,-0.0149,-0.0118,-0.0152, 0.0114,-1.2701
17-Jan-2019 10:29:26.536,-0.0081,-0.0082,-0.9842, 0.0070, 0.0042, 0.0145,-0.0094,-0.0128,-0.0118,-0.0152, 0.0114,-1.2701
17-Jan-2019 10:29:26.575,-0.0094,-0.0086,-0.9868, 0.0069, 0.0027, 0.0133,-0.0116,-0.0128,-0.0118,-0.0152, 0.0113,-1.2702
17-Jan-2019 10:29:26.615,-0.0076,-0.0078,-0.9890, 0.0068, 0.0031, 0.0103,-0.0116,-0.0138,-0.0118,-0.0152, 0.0113,-1.2702
17-Jan-2019 10:29:26.655,-0.0079,-0.0069,-0.9889, 0.0070, 0.0045, 0.0097,-0.0094,-0.0149,-0.0107,-0.0152, 0.0113,-1.2702
17-Jan-2019 10:29:26.694,-0.0088,-0.0087,-0.9865, 0.0066, 0.0031, 0.0120,-0.0094,-0.0160,-0.0118,-0.0152, 0.0113,-1.2702
17-Jan-2019 10:29:26.734,-0.0095,-0.0087,-0.9861, 0.0061, 0.0031, 0.0133,-0.0105,-0.0149,-0.0118,-0.0152, 0.0113,-1.2702
17-Jan-2019 10:29:26.774,-0.0091,-0.0077,-0.9825, 0.0075, 0.0032, 0.0157,-0.0083,-0.0160,-0.0107,-0.0153, 0.0113,-1.2701
17-Jan-2019 10:29:26.813,-0.0076,-0.0077,-0.9801, 0.0070, 0.0037, 0.0194,-0.0105,-0.0128,-0.0107,-0.0153, 0.0113,-1.2701
17-Jan-2019 10:29:26.853,-0.0091,-0.0089,-0.9858, 0.0076, 0.0028, 0.0160,-0.0084,-0.0149,-0.0118,-0.0152, 0.0113,-1.2701
17-Jan-2019 10:29:26.893,-0.0087,-0.0085,-0.9923, 0.0058, 0.0034, 0.0090,-0.0094,-0.0149,-0.0118,-0.0153, 0.0113,-1.2701
17-Jan-2019 10:29:26.933,-0.0084,-0.0085,-0.9965, 0.0069, 0.0032, 0.0041,-0.0094,-0.0138,-0.0129,-0.0153, 0.0113,-1.2701
17-Jan-2019 10:29:26.973,-0.0070,-0.0085,-0.9935, 0.0081, 0.0028, 0.0061,-0.0105,-0.0138,-0.0097,-0.0153, 0.0113,-1.2701
17-Jan-2019 10:29:27.012,-0.0081,-0.0093,-0.9868, 0.0069, 0.0025, 0.0114,-0.0116,-0.0138,-0.0118,-0.0153, 0.0113,-1.2701
17-Jan-2019 10:29:27.052,-0.0084,-0.0080,-0.9831, 0.0072, 0.0029, 0.0160,-0.0105,-0.0138,-0.0118,-0.0153, 0.0113,-1.2702
17-Jan-2019 10:29:27.092,-0.0084,-0.0087,-0.9801, 0.0070, 0.0029, 0.0190,-0.0094,-0.0138,-0.0129,-0.0153, 0.0113,-1.2702
17-Jan-2019 10:29:27.131,-0.0085,-0.0068,-0.9797, 0.0055, 0.0035, 0.0203,-0.0116,-0.0117,-0.0118,-0.0153, 0.0113,-1.2702
17-Jan-2019 10:29:27.172,-0.0085,-0.0089,-0.9811, 0.0069, 0.0023, 0.0205,-0.0105,-0.0149,-0.0118,-0.0153, 0.0113,-1.2702
17-Jan-2019 10:29:27.211,-0.0065,-0.0097,-0.9891, 0.0082, 0.0020, 0.0132,-0.0115,-0.0213,-0.0118,-0.0154, 0.0112,-1.2702
17-Jan-2019 10:29:27.250,-0.0094,-0.0091,-0.9948, 0.0052, 0.0025, 0.0088,-0.0095,-0.0096,-0.0118,-0.0155, 0.0112,-1.2702
17-Jan-2019 10:29:27.290,-0.0059,-0.0084,-1.0031, 0.0057, 0.0041, 0.0048,-0.0136,-0.0245,-0.0118,-0.0151, 0.0114,-1.2702
17-Jan-2019 10:29:27.330,-0.0077,-0.0090,-0.9976, 0.0052, 0.0021, 0.0079,-0.0125,-0.0266,-0.0118,-0.0154, 0.0113,-1.2701
17-Jan-2019 10:29:27.369,-0.0040,-0.0084,-0.9993, 0.0061, 0.0060, 0.0148,-0.0168,-0.0298,-0.0108,-0.0153, 0.0113,-1.2701
17-Jan-2019 10:29:27.409,-0.0110,-0.0081,-0.9817, 0.0064, 0.0032, 0.0125,-0.0063,-0.0010,-0.0107,-0.0152, 0.0113,-1.2701
17-Jan-2019 10:29:27.449,-0.0073,-0.0092,-0.9857, 0.0091, 0.0013, 0.0156,-0.0178,-0.0298,-0.0119,-0.0152, 0.0113,-1.2701
17-Jan-2019 10:29:27.489,-0.0098,-0.0071,-0.9758, 0.0066, 0.0035, 0.0189,-0.0137,-0.0181,-0.0118,-0.0162, 0.0109,-1.2702
17-Jan-2019 10:29:27.529,-0.0069,-0.0079,-0.9866, 0.0071, 0.0025, 0.0169,-0.0095,-0.0074,-0.0118,-0.0156, 0.0111,-1.2701
17-Jan-2019 10:29:27.568,-0.0085,-0.0088,-0.9840, 0.0078, 0.0021, 0.0149,-0.0136,-0.0256,-0.0097,-0.0159, 0.0110,-1.2701
17-Jan-2019 10:29:27.608,-0.0082,-0.0083,-0.9873, 0.0066, 0.0029, 0.0130,-0.0136,-0.0202,-0.0129,-0.0161, 0.0109,-1.2702
17-Jan-2019 10:29:27.648,-0.0087,-0.0077,-0.9909, 0.0071, 0.0025, 0.0100,-0.0136,-0.0256,-0.0118,-0.0161, 0.0109,-1.2702
17-Jan-2019 10:29:27.688,-0.0096,-0.0079,-0.9892, 0.0083, 0.0027, 0.0096,-0.0167,-0.0341,-0.0119,-0.0167, 0.0107,-1.2701
17-Jan-2019 10:29:27.728,-0.0076,-0.0081,-0.9954, 0.0042, 0.0043, 0.0134, 0.0021, 0.0203,-0.0127,-0.0156, 0.0111,-1.2701
17-Jan-2019 10:29:27.767,-0.0085,-0.0081,-0.9883, 0.0063, 0.0073, 0.0173,-0.0032, 0.0032,-0.0117,-0.0154, 0.0112,-1.2702
17-Jan-2019 10:29:27.807,-0.0076,-0.0081,-0.9914, 0.0065, 0.0039, 0.0131,-0.0136,-0.0224,-0.0129,-0.0157, 0.0111,-1.2702
17-Jan-2019 10:29:27.847,-0.0087,-0.0086,-0.9908, 0.0079, 0.0016, 0.0130,-0.0147,-0.0234,-0.0118,-0.0162, 0.0108,-1.2702
17-Jan-2019 10:29:27.886,-0.0109,-0.0070,-1.0130, 0.0061, 0.0043,-0.0074,-0.0063,-0.0064,-0.0118,-0.0163, 0.0109,-1.2702
17-Jan-2019 10:29:27.926,-0.0097,-0.0105,-1.0361, 0.0070, 0.0023,-0.0317,-0.0084,-0.0128,-0.0097,-0.0160, 0.0110,-1.2702
17-Jan-2019 10:29:27.978,-0.0084,-0.0094,-1.0507, 0.0083, 0.0014,-0.0509,-0.0095,-0.0074,-0.0128,-0.0167, 0.0108,-1.2702
17-Jan-2019 10:29:28.005,-0.0117,-0.0060,-0.9991, 0.0069, 0.0053,-0.0404,-0.0116,-0.0138,-0.0107,-0.0167, 0.0107,-1.2702
17-Jan-2019 10:29:28.045,-0.0034,-0.0062,-0.9850, 0.0052, 0.0129, 0.0401,-0.0000, 0.0139,-0.0117,-0.0153, 0.0113,-1.2702
